time,gyro_x,gyro_y,gyro_z,acc_x,acc_y,acc_z
0.0,0.20943951023931956,0.10471975511965978,0.20943951023931956,0.0,0.0,9.81
0.01,0.2092134867791031,0.10515628083796619,0.20921794245669573,-0.016585731843514195,-0.009440521903516106,9.81002929772487
0.02,0.2089740783539368,0.10558852500605138,0.20899191420317464,-0.033296469120911956,-0.01885263307314617,9.810116802983933
0.03,0.20872130491191174,0.10601643567135792,0.20876146481778207,-0.05013152511702433,-0.02823410913583603,9.810261911472903
0.04,0.20845518725495749,0.10643996125424232,0.2085266340649973,-0.06709018213986094,-0.03758273324785173,9.810463989227596
0.05,0.20817574703675176,0.10685905055699493,0.20828746212604987,-0.08417169158442514,-0.04689629666587297,9.810722372945332
0.06,0.20788300676057675,0.10727365277274095,0.2080439895900761,-0.10137527400399315,-0.056172599312710736,9.81103637031992
0.07,0.20757698977712047,0.10768371749421998,0.2077962574451364,-0.11870011918884085,-0.06540945033739912,9.811405260389888
0.08,0.2072577202822253,0.10808919472244186,0.20754430706909627,-0.13614538625240072,-0.07460466866941476,9.811828293899955
0.09,0.20692522331458274,0.10849003487521594,0.20728818022037418,-0.15371020372482908,-0.08375608356678496,9.812304693675399
0.1,0.2065795247533751,0.10888618879555205,0.2070279190285586,-0.17139366965396088,-0.09286153515784806,9.81283365500922
0.11,0.20622065131586448,0.10927760775993049,0.20676356598489723,-0.18919485171362732,-0.10191887497643576,9.813414346061833
0.12,0.20584863055492897,0.10966424348643905,0.20649516393266065,-0.2071127873193103,-0.11092596649025266,9.814045908273103
0.13,0.20546349085654667,0.11004604814277502,0.20622275605738438,-0.22514648375110427,-0.1198806856222343,9.814727456786523
0.14,0.20506526143722767,0.1104229743541097,0.2059463858769913,-0.24329491828395416,-0.1287809212646709,9.815458080885266
0.15,0.20465397234139424,0.11079497521081415,0.20566609723179816,-0.26155703832513677,-0.137624575785885,9.816236844439908
0.16,0.20422965443870958,0.1111620042760435,0.20538193427440854,-0.2799317615589503,-0.14640956552926837,9.817062786367615
0.17,0.20379233942135544,0.11152401559317858,0.2050939414594962,-0.2984179760985721,-0.1551338213044739,9.817934921102452
0.18,0.20334205980125863,0.11188096369312278,0.20480216353348105,-0.3170145406450503,-0.16379528887058115,9.818852239076724
0.19,0.20287884890726732,0.11223280360145231,0.20450664552410186,-0.33572028465338,-0.1723919294110462,9.819813707212912
0.2,0.20240274088227656,0.11257949084541877,0.2042074327298882,-0.3545340085056278,-0.18092172000026213,9.820818269426109
0.21,0.2019137706803042,0.11292098146080203,0.20390457070953555,-0.3734544836910533,-0.1893826540615608,9.821864847136618
0.22,0.20141197406351694,0.1132572319986118,0.20359810527118602,-0.3924804529931815,-0.19777274181648685,9.822952339792417
0.23,0.20089738759920686,0.11358819953163717,0.20328808246161933,-0.4116106306837767,-0.2060900107251944,9.82407962540128
0.24,0.20037004865671904,0.11391384166084191,0.20297454855535627,-0.43084370272366446,-0.21433250591781255,9.825245561072276
0.25,0.1998299954043302,0.11423411652160516,0.2026575500436786,-0.45017832697034865,-0.2224982906166333,9.826448983566276
0.26,0.19927726680607902,0.11454898278980559,0.202337133623569,-0.4696131333923671,-0.23058544654899304,9.827688709855344
0.27,0.1987119026185484,0.11485839968774829,0.20201334618657446,-0.48914672429032674,-0.23859207435071084,9.828963537690537
0.28,0.19813394338759924,0.11516232698993359,0.20168623480759634,-0.5087776745245614,-0.24651629395996733,9.830272246177975
0.29,0.1975434304450575,0.11546072502866622,0.201355846733611,-0.5285045317493466,-0.254356245001504,9.83161359636283
0.3,0.19694040590535353,0.11575355469950468,0.20102222937232522,-0.5483258166536122,-0.262110087161039,9.832986331820903
0.31,0.19632491266211452,0.11604077746654944,0.20068543028076813,-0.5682400232080795,-0.2697760005497952,9.834389179257514
0.32,0.1956969943847106,0.11632235536756973,0.20034549715382582,-0.588245618918767,-0.27735218605905165,9.835820849113457
0.33,0.19505669551475455,0.11659825101896788,0.20000247781272024,-0.6083410450867841,-0.2848368657046251,9.83728003617761
0.34,0.1944040612625554,0.11686842762058108,0.1996564201934372,-0.6285247170743509,-0.2922282829612116,9.83876542020598
0.35000000000000003,0.19373913760352693,0.11713284896031972,0.19930737233510687,-0.6487950245769616,-0.299524703086509,9.840275666546793
0.36,0.19306197127455033,0.11739147941864214,0.19895538236834043,-0.669150331901631,-0.3067244134350591,9.841809426771404
0.37,0.19237260977029225,0.11764428397286554,0.19860049850352698,-0.689588978251132,-0.31382572376175266,9.843365339310642
0.38,0.19167110133947832,0.11789122820131247,0.19824276901909368,-0.7101092780141582,-0.32082696651494913,9.84494203009631
0.39,0.19095749498112213,0.11813227828729332,0.1978822422497342,-0.7307095210613288,-0.32772649711916313,9.846538113207485
0.4,0.19023184044071054,0.11836740102292409,0.19751896657460774,-0.7513879730469499,-0.33452269424728853,9.848152191521358
0.41000000000000003,0.1894941882063453,0.11859656381278008,0.19715299040551387,-0.7721428757164601,-0.34121396008233384,9.849782857368252
0.42,0.18874458950484133,0.11881973467738513,0.19678436217504564,-0.7929724472194637,-0.34779872056863625,9.851428693190481
0.43,0.18798309629778243,0.11903688225653661,0.19641313032472604,-0.8138748824282773,-0.35427542565255754,9.853088272204777
0.44,0.18720976127753408,0.11924797581246695,0.1960393432931307,-0.8348483532618942,-0.36064254951264396,9.854760159067938
0.45,0.18642463786321423,0.11945298523284105,0.19566304950400085,-0.8558910090152845,-0.3668985907792569,9.856442910545365
0.46,0.18562778019662224,0.1196518810335912,0.19528429735435077,-0.8770009766939364,-0.3730420727436774,9.858135076182187
0.47000000000000003,0.18481924313812617,0.11984463436158867,0.19490313520257332,-0.8981763613535507,-0.3790715435567088,9.859835198976642
0.48,0.18399908226250922,0.12003121699715352,0.19451961135654663,-0.9194152464447913,-0.3849855764167833,9.861541816055368
0.49,0.1831673538547751,0.12021160135640313,0.19413377406174706,-0.9407156941630073,-0.3907827697476246,9.863253459350348
0.5,0.18232411490591277,0.12038576049343948,0.19374567148937152,-0.9620757458028188,-0.39646174736547946,9.864968656277142
0.51,0.18146942310862182,0.12055366810237654,0.19335535172447244,-0.9834934221174805,-0.4020211586359732,9.86668593041402
0.52,0.1806033368529974,0.12071529851920895,0.19296286275411045,-1.0049667236829194,-0.40745967862064036,9.868403802181874
0.53,0.1797259152221761,0.12087062672352178,0.1925682524555273,-1.0264936312663566,-0.41277600821317706,9.87012078952437
0.54,0.1788372179879427,0.1210196283400436,0.19217156858434323,-1.048072106199397,-0.41796887426548324,9.871835408588147
0.55,0.17793730560629836,0.12116227964004309,0.19177285876278305,-1.0697000907555045,-0.42303702970356305,9.87354617440275
0.56,0.17702623921299065,0.12129855754257071,0.19137217046793367,-1.0913755085317525,-0.4279792536333593,9.875251601559938
0.5700000000000001,0.17610408061900512,0.1214284396155466,0.19096955102003765,-1.1130962648347407,-0.43279435143659883,9.876950204892065
0.58,0.17517089230602004,0.1215519040766958,0.19056504757082568,-1.13486024707059,-0.43748115485674033,9.878640500149283
0.59,0.1742267374218234,0.12166892979433243,0.19015870709189248,-1.1566653251388948,-0.4420385220751146,9.880321004675155
0.6,0.1732716797756933,0.12177949628799385,0.18975057636311904,-1.1785093518305372,-0.44646533777735975,9.881990238080492
0.61,0.17230578383374184,0.1218835837289267,0.18934070196114536,-1.2003901632292546,-0.45076051321025323,9.883646722915026
0.62,0.17132911471422285,0.12198117294042607,0.18892913024789645,-1.22230557911685,-0.45492298622905025,9.885288985336654
0.63,0.17034173818280393,0.12207224539802937,0.18851590735916682,-1.244253403381944,-0.45895172133544726,9.886915555777975
0.64,0.16934372064780331,0.12215678322956688,0.1881010791932644,-1.2662314244321529,-0.46284570970629013,9.888524969609781
0.65,0.16833512915539126,0.12223476921507037,0.18768469139972044,-1.288237415609586,-0.46660396921314984,9.89011576780125
0.66,0.16731603138475748,0.12230618678654157,0.1872667893680661,-1.3102691356095575,-0.4702255444329051,9.891686497576574
0.67,0.1662864956432437,0.12237102002758261,0.18684741821668094,-1.3323243289023927,-0.4737095066494561,9.893235713067654
0.68,0.1652465908614427,0.12242925367289023,0.18642662278171615,-1.354400726158226,-0.47705495384672125,9.894761975962677
0.6900000000000001,0.16419638658826383,0.12248087310761521,0.18600444760609564,-1.376496044674676,-0.4802610106930574,9.896263856150277
0.7000000000000001,0.16313595298596523,0.12252586436659005,0.18558093692859898,-1.3986079888072824,-0.48332682851725206,9.897739932358947
0.71,0.16206536082515346,0.12256421413342579,0.18515613467302838,-1.4207342504026035,-0.4862515852762397,9.899188792791517
0.72,0.16098468147975065,0.12259590973948088,0.18473008443746453,-1.4428725092338448,-0.48903448551471573,9.900609035754398
0.73,0.15989398692192966,0.12262093916270408,0.18430282948361304,-1.4650204334389205,-0.4916747603167779,9.901999270281314
0.74,0.15879334971701775,0.12263929102635324,0.18387441272624536,-1.487175679960826,-0.49417166724979866,9.903358116751294
0.75,0.15768284301836866,0.12265095459759265,0.1834448767227374,-1.509335894990211,-0.4965244903006747,9.904684207500683
0.76,0.1565625405622042,0.12265591978597101,0.18301426366270876,-1.5314987144100431,-0.4987325398046254,9.90597618742888
0.77,0.15543251666242508,0.1226541771417825,0.1825826153577653,-1.5536617642422343,-0.5007951523667302,9.907232714597605
0.78,0.15429284620539174,0.12264571785431296,0.18214997323134885,-1.575822661096135,-0.5027116907763762,9.908452460823453
0.79,0.1531436046446753,0.12263053374997404,0.18171637830869605,-1.597979012618766,-0.5044815439147896,9.909634112263461
0.8,0.15198486799577932,0.12260861729032771,0.18128187120691008,-1.6201284179466842,-0.5061041266558561,9.910776369993517
0.81,0.15081671283083253,0.12257996157000314,0.18084649212514778,-1.642268468159355,-0.5075788797603975,9.91187795057934
0.8200000000000001,0.14963921627325266,0.12254456031450914,0.18041028083492444,-1.6643967467339391,-0.5089052697641077,9.912937586639876
0.8300000000000001,0.1484524559923826,0.122502407877944,0.17997327667054047,-1.6865108300013536,-0.5100827888593311,9.913954027402788
0.84,0.14725651019809816,0.12245349924060621,0.17953551851963093,-1.7086082876035125,-0.511110954770885,9.914926039251968
0.85,0.14605145763538868,0.12239783000650764,0.17909704481384184,-1.7306866829516212,-0.5119893106261106,9.915852406266731
0.86,0.14483737757891033,0.12233539640079256,0.17865789351963526,-1.7527435736854184,-0.5127174248193722,9.916731930752642
0.87,0.14361434982751292,0.122266195267065,0.17821810212922623,-1.7747765121332502,-0.5132948908711705,9.91756343376362
0.88,0.1423824546987402,0.12219022406462679,0.1777777076516532,-1.7967830457728584,-0.5137213272821102,9.918345755615276
0.89,0.1411417730233044,0.12210748086562959,0.17733674660398538,-1.8187607176927731,-0.5139963773818759,9.919077756389191
0.9,0.1398923861395348,0.12201796435214293,0.17689525500266887,-1.8407070670542023,-0.514119709173471,9.919758316428055
0.91,0.13863437588780153,0.12192167381314181,0.17645326835501401,-1.8626196295532955,-0.5140910151728824,9.920386336821407
0.92,0.13736782460491445,0.12181860914141573,0.17601082165082643,-1.8844959378836756,-0.5139100122443883,9.920960739881878
0.93,0.13609281511849736,0.1217087708304028,0.17556794935418324,-1.9063335221991309,-0.5135764414317239,9.921480469611721
0.9400000000000001,0.13480943074133836,0.12159215997095091,0.1751246853953582,-1.9281299105763443,-0.513090067785293,9.921944492159522
0.9500000000000001,0.13351775526571663,0.1214687782480095,0.1746810631628963,-1.9498826294775622,-0.5124506801856354,9.922351796266902
0.96,0.13221787295770568,0.12133862793725418,0.17423711549584037,-1.9715892042130905,-0.511658091163367,9.922701393705117
0.97,0.13090986855145362,0.1212017119016473,0.1737928746761127,-1.993247159403496,-0.5107121367157719,9.922992319701304
0.98,0.12959382724344143,0.12105803358793718,0.1733483724210515,-2.0148540194414206,-0.5096126761202788,9.923223633354429
0.99,0.12826983468671843,0.1209075970230989,0.17290363987610693,-2.03640730895289,-0.508359591745003,9.923394418040601
1.0,0.12693797698511622,0.12075040681071944,0.17245870760769566,-2.057904553258018,-0.5069527888565688,9.92350378180777
1.01,0.1255983406874414,0.12058646812732987,0.17201360559621806,-2.0793432788309842,-0.5053921954254044,9.923550857759645
1.02,0.12425101278164707,0.12041578671868786,0.17156836322923827,-2.1007210137591956,-0.5036777619287267,9.923534804428703
1.03,0.12289608068898362,0.12023836889601258,0.17112300929482946,-2.122035288201523,-0.5018094611513899,9.923454806138224
1.04,0.12153363225812962,0.12005422153217563,0.17067757197508618,-2.143283634845497,-0.4997872879848275,9.923310073353234
1.05,0.12016375575930237,0.11986335205785015,0.17023207883980407,-2.164463589363368,-0.49761125922424787,9.923099843020196
1.06,0.1187865398783492,0.11966576845762131,0.16978655684033073,-2.1855726908669366,-0.4952814133643113,9.922823378895503
1.07,0.11740207371081975,0.11946147926606085,0.16934103230358624,-2.2066084823610312,-0.4927978103934645,9.922479971862526
1.08,0.11601044675601935,0.11925049356376838,0.16889553092625748,-2.2275685111955488,-0.49016053158712425,9.922068940237274
1.09,0.11461174891104384,0.11903282097338223,0.16845007776916598,-2.2484503295159524,-0.48736967929990205,9.921589630062478
1.1,0.11320607046479701,0.11880847165556283,0.1680046972518106,-2.2692514947121287,-0.48442537675705144,9.921041415390114
1.11,0.11179350209198963,0.11857745630495084,0.1675594131470876,-2.2899695698654985,-0.4813277678453356,9.920423698552256
1.12,0.11037413484712197,0.11833978614610335,0.167114248576187,-2.310602124194305,-0.4780770169034847,9.919735910420238
1.1300000000000001,0.10894806015844913,0.11809547292941039,0.16666922600366887,-2.331146733496949,-0.4746733085124075,9.91897751065199
1.1400000000000001,0.10751536982192968,0.11784452892699453,0.16622436723271866,-2.3516009805933153,-0.47111684728538483,9.918147987927632
1.1500000000000001,0.10607615599515872,0.11758696692859652,0.16577969340058346,-2.3719624557639625,-0.46740785765834625,9.917246860173133
1.16,0.10463051119128497,0.11732280023744898,0.16533522497419,-2.392228757187109,-0.4635465836804631,9.916273674772127
1.17,0.1031785282729121,0.1170520426661413,0.16489098174594485,-2.412397491373302,-0.45953328880519173,9.915228008765757
1.18,0.1017203004459859,0.11677470853247815,0.16444698282971867,-2.432466273597696,-0.4553682556819316,9.914109469040568
1.19,0.1002559212536663,0.11649081265533386,0.16400324665701405,-2.452432728329844,-0.4510517859484757,9.91291769250443
1.2,0.09878548457018527,0.11620037035050561,0.16355979097331835,-2.472294489660915,-0.4465842000243918,9.911652346250426
1.21,0.09730908459469084,0.11590339742656762,0.1631166328346423,-2.492049201728244,-0.4419658369054993,9.91031312770874
1.22,0.09582681584507799,0.1155999101807288,0.16267378860424445,-2.511694519137138,-0.4371970539595824,9.908899764786508
1.23,0.09433877315180582,0.11528992539469629,0.16223127394954237,-2.5312281073798557,-0.4322782267234997,9.907412015995641
1.24,0.09284505165170269,0.11497346033054741,0.16178910383921147,-2.5506476432516623,-0.4272097487018094,9.905849670568596
1.25,0.09134574678175848,0.11465053272661205,0.16134729254047078,-2.5699508152638932,-0.4219920311670702,9.904212548562143
1.26,0.08984095427290519,0.1143211607933679,0.1609058536165573,-2.589135324053938,-0.4166255029619452,9.902500500949083
1.27,0.08833077014378582,0.11398536320935113,0.16046479992438864,-2.608198882792068,-0.4111106103032216,9.900713409697957
1.28,0.086815290694512,0.11364315911708378,0.16002414361241438,-2.6271392175850314,-0.4054478165878965,9.898851187840798
1.29,0.08529461250041093,0.11329456811902135,0.159583896118656,-2.645954067876331,-0.3996376022014463,9.896913779528873
1.3,0.08376883240576152,0.11293961027352137,0.15914406816893673,-2.6646411868431183,-0.3936804643283649,9.89490116007648
1.31,0.08223804751752087,0.11257830609083591,0.15870466977529984,-2.683198341789629,-0.38757691676513817,9.89281333599286
1.32,0.0807023551990406,0.11221067652912983,0.15826571023461683,-2.7016233145370823,-0.38132748973570596,9.89065034500221
1.33,0.0791618530637741,0.11183674299052637,0.15782719812738508,-2.7199139018099774,-0.37493272970955527,9.888412256051843
1.34,0.07761663896897451,0.11145652731718264,0.15738914131671458,-2.7380679156187115,-0.36839319922252756,9.886099169308556
1.35,0.07606681100938446,0.11107005178739629,0.15695154694750438,-2.756083183638461,-0.36170947670042874,9.883711216143244
1.36,0.07451246751091718,0.11067733911174567,0.15651442144580807,-2.7739575495842503,-0.3548821562855493,9.881248559103792
1.37,0.07295370702432996,0.1102784124292647,0.15607777051838884,-2.79168887358215,-0.34791184766615935,9.878711391876356
1.3800000000000001,0.07139062831888997,0.10987329530365472,0.15564159915246295,-2.809275032536526,-0.3407991759090718,9.87609993923498
1.3900000000000001,0.06982333037603305,0.10946201171953471,0.15520591161563235,-2.826713920493296,-0.33354478129534826,9.873414456979729
1.4000000000000001,0.0682519123830157,0.10904458607873137,0.15477071145600582,-2.844003448999128,-0.3261493191592053,9.870655231863344
1.41,0.06667647372656049,0.10862104319661076,0.15433600150250784,-2.861141547456497,-0.3186134597302095,9.867822581506458
1.42,0.06509711398649565,0.10819140829845328,0.15390178386537573,-2.878126163474585,-0.3109378879787954,9.864916854301521
1.43,0.063513932929389,0.10775570701587257,0.15346805993684384,-2.8949552632159232,-0.30312330346518657,9.861938429305434
1.44,0.06192703050217643,0.10731396538328078,0.15303483039201518,-2.9116268317387597,-0.2951704201917562,9.858887716121018
1.45,0.06033650682578545,0.10686620983440065,0.15260209518991846,-2.9281388733350644,-0.2870799664588759,9.855765154767385
1.46,0.05874246218875428,0.10641246719882616,0.1521698535747527,-2.944489411864142,-0.2788526847242987,9.852571215539244
1.47,0.0571449970408467,0.1059527646986329,0.15173810407731547,-2.9606764910818018,-0.270489331466107,9.84930639885536
1.48,0.05554421198666307,0.10548712994503881,0.15130684451661705,-2.9766981749650165,-0.2619906770492628,9.845971235096082
1.49,0.05394020777924778,0.10501559093511713,0.15087607200167852,-2.9925525480320414,-0.2533575055957855,9.842566284430198
1.5,0.05233308531369377,0.10453817604856214,0.15044578293351274,-3.008237715657936,-0.24459061485856637,9.839092136631072
1.51,0.05072294562074421,0.10405491404450842,0.15001597300728883,-3.023751804385451,-0.23569081609887066,9.835549410882265
1.52,0.04910988986039172,0.10356583405840525,0.149586637214678,-3.0390929622312273,-0.22665893396748915,9.831938755572704
1.53,0.04749401931547581,0.10307096559894582,0.1491577698463804,-3.05425935898728,-0.21749580638960486,9.82826084808148
1.54,0.04587543538527837,0.10257033854505357,0.14872936449483337,-3.0692491865177036,-0.208202284453324,9.824516394552397
1.55,0.044254239579118226,0.10206398314292478,0.14830141405709785,-3.084060659050588,-0.19877923230190087,9.820706129658424
1.56,0.04263053350994449,0.1015519300031292,0.1478739107379239,-3.0986920134650795,-0.18922752702965395,9.816830816356081
1.57,0.04100441888792945,0.10103421009776853,0.14744684605299424,-3.113141509573576,-0.17954805858153167,9.812891245629942
1.58,0.03937599751406133,0.10051085475769395,0.14702021083234346,-3.1274074303989945,-0.16974172965634704,9.808888236227329
1.59,0.037745371273737116,0.09998189566978238,0.14659399522395414,-3.1414880824471103,-0.15980945561363447,9.804822634383346
1.6,0.03611264213035597,0.09944736487427261,0.14616818869752604,-3.1553817959739003,-0.14975216438412176,9.800695313536334
1.61,0.034477912118913503,0.09890729476216095,0.14574278004842064,-3.1690869252478873,-0.13957079638377712,9.796507174033934
1.62,0.03284128333959736,0.09836171807265709,0.14531775740177622,-3.1826018488074466,-0.12926630443140041,9.792259142829797
1.6300000000000001,0.031202857951384368,0.09781066789070025,0.14489310821679574,-3.1959249697130394,-0.11883965366972449,9.787952173171156
1.6400000000000001,0.029562738165639587,0.09725417764453564,0.14446881929120423,-3.209054715794365,-0.10829182148998573,9.78358724427732
1.6500000000000001,0.0279210262397179,0.09669228110335125,0.14404487676587507,-3.2219895398923875,-0.09762379745990124,9.779165361009282
1.6600000000000001,0.026277824470568062,0.09612501237497523,0.14362126612962406,-3.234727920096214,-0.08683658325502419,9.77468755353047
1.67,0.024633235188340014,0.09555240590363356,0.14319797222417024,-3.2472683599748438,-0.07593119259341519,9.770154876958985
1.68,0.02298736074999529,0.09497449646776791,0.14277497924926147,-3.2596093888036872,-0.06490865117355904,9.765568411011156
1.69,0.021340303532921698,0.09439131917791352,0.14235227076796433,-3.2717495617859154,-0.053769996615480764,9.760929259636859
1.7,0.019692165928551632,0.09380290947463676,0.14192982971211615,-3.283687460268576,-0.0425162784049915,9.756238550646525
1.71,0.018043050335985158,0.0932093031265323,0.14150763838793848,-3.295421691953476,-0.03114855784098669,9.751497435330114
1.72,0.016393059155617798,0.09261053622827913,0.1410856784818103,-3.3069508911028005,-0.019667907985723154,9.746707088068067
1.73,0.01474229478277364,0.0920066451987551,0.14066393106619957,-3.318273718739478,-0.008075413618018334,9.741868705934541
1.74,0.013090859601343926,0.09139766677920996,0.14024237660575178,-3.3293888628422534,0.00362782881074164,9.736983508292928
1.75,0.011438855977431502,0.09078363803149526,0.13982099496353373,-3.340295038535473,0.015440711217851177,9.73205273638389
1.76,0.009786386253001742,0.09016459633635167,0.13939976540743151,-3.3509909882735687,0.0273621139278597,9.727077652906056
1.77,0.008133552739539786,0.08954057939175214,0.13897866661670089,-3.3614754820202277,0.039390905708609925,9.722059541589484
1.78,0.006480457711715123,0.08891162521130055,0.13855767668866822,-3.37174731742224,0.051525943804789254,9.716999706762103
1.79,0.004827203401053137,0.08827777212268509,0.13813677314558137,-3.381805319978028,0.06376607396910305,9.711899472909229
1.8,0.00317389198961468,0.08763905876618494,0.1377159329416075,-3.3916483432008286,0.07611013049119286,9.70676018422637
1.81,0.001520625603683403,0.08699552409323055,0.13729513246997765,-3.4012752687765566,0.08855693622436211,9.701583204165429
1.82,-0.00013249369253828802,0.08634720736501461,0.1368743475702752,-3.4106850067163217,0.10110530261024309,9.696369914974502
1.83,-0.0017853639032246703,0.08569414815115499,0.13645355353586786,-3.41987649550359,0.1137540297015085,9.691121717231383
1.84,-0.0034378831072129495,0.08503638632840617,0.13603272512147951,-3.428848702236028,0.12650190618271795,9.685840029370992
1.85,-0.005089949464280152,0.08437396207942019,0.1356118365509028,-3.4376006227619875,0.1393477093894444,9.680526287206849
1.86,-0.006741461221410103,0.08370691589155417,0.13519086152484852,-3.446131281811652,0.15229020532576065,9.675181943446782
1.87,-0.008392316719050257,0.08303528855572423,0.13476977322893074,-3.4544397331228502,0.16532814868023182,9.669808467203005
1.8800000000000001,-0.010042414397358106,0.082359121165304,0.13434854434178664,-3.4625250595615347,0.1784602828405082,9.664407343496753
1.8900000000000001,-0.011691652802436654,0.0816784551150666,0.13392714704332814,-3.4703863732369165,0.19168533990666248,9.658980072757648
1.9000000000000001,-0.01333993059255864,0.08099333210016829,0.13350555302312403,-3.4780228156112933,0.20500204070336325,9.653528170317927
1.9100000000000001,-0.014987146544379307,0.080303794115173,0.13308373348891095,-3.48543355760455,0.21840909479104553,9.648053165901748
1.92,-0.016633199559137148,0.0796098834531153,0.13266165917523062,-3.492617799693358,0.23190520047616836,9.642556603109712
1.93,-0.018277988668842587,0.07891164270460133,0.1322393003521923,-3.4995747720050527,0.24548904482071832,9.637040038898771
1.94,-0.019921413042453658,0.07820911475694502,0.13181662683435796,-3.5063037344062398,0.25915930365105044,9.631505043057695
1.95,-0.02156337199203919,0.07750234279333881,0.13139360798974858,-3.512803976586116,0.2729146415662407,9.625953197678315
1.96,-0.023203764978928343,0.07679137029205654,0.13097021274896897,-3.519074818134505,0.28675371194603594,9.620386096622624
1.97,-0.024842491619846738,0.07607624102568719,0.13054640961445035,-3.525115608614658,0.3006751569585586,9.61480534498601
1.98,-0.026479451693038347,0.07535699906039747,0.13012216666980717,-3.530925727630791,0.3146776075679014,9.609212558556694
1.99,-0.028114545144373247,0.07463368875522161,0.12969745158930768,-3.5365045848904044,0.328759683541723,9.603609363271671
2.0,-0.029747672093440574,0.07390635476137614,0.12927223164745485,-3.541851620261376,0.3429199934589975,9.597997394669195
2.0100000000000002,-0.0313787328396265,0.0731750420215983,0.12884647372867633,-3.546966303823869,0.35715713471803845,9.592378297338087
2.02,-0.03300762786817657,0.07243979576950565,0.12842014433712154,-3.55184813591704,0.3714696935449475,9.58675372436399
2.0300000000000002,-0.03463425785624305,0.07170066152897503,0.1279932096065628,-3.5564966471806017,0.3858562450026013,9.581125336772804
2.04,-0.03625852367891502,0.07095768511353939,0.12756563531039983,-3.5609113985912173,0.4003153530003276,9.575494802971367
2.05,-0.03788032641523335,0.07021091262579918,0.12713738687176382,-3.5650919814937843,0.41484557030439495,9.569863798185708
2.06,-0.03949956735418803,0.06946039045684785,0.12670842937372037,-3.5690380176275998,0.4294454385494597,9.564234003896946
2.07,-0.041116148000698474,0.0687061652857083,0.12627872756956837,-3.5727491591474467,0.4441134882510873,9.55860710727506
2.08,-0.042729970081577126,0.06794828407877805,0.1258482458932323,-3.576225088639602,0.458848238819503,9.55298480061068
2.09,-0.04434093555147414,0.06718679408928185,0.1254169484697467,-3.579465519132808,0.47364819857468765,9.547368780745119
2.1,-0.04594894659880526,0.0664217428567286,0.1249847991258298,-3.5824701941042276,0.48851186476295894,9.541760748498803
2.11,-0.04755390565165976,0.06565317820637118,0.1245517614005438,-3.5852388874803833,0.5034377235751664,9.536162408098276
2.12,-0.049155715383691234,0.06488114824866616,0.12411779855604085,-3.5877714036331407,0.5184242501666303,9.530575466602
2.13,-0.05075427871998757,0.06410570137873207,0.12368287358839064,-3.5900675773707262,0.5334699086789625,9.525001633325063
2.14,-0.0523494988429231,0.0633268862758028,0.12324694923848853,-3.5921272739238304,0.5485731522638757,9.519442619263053
2.15,-0.05394127919798937,0.06254475190267515,0.12280998800304169,-3.5939503889268054,0.5637324231091398,9.513900136515241
2.16,-0.055529523499607256,0.061759347505146965,0.12237195214562993,-3.595536848393995,0.5789461524667834,9.508375897707253
2.17,-0.057114135736917225,0.06097072261144467,0.12193280370784049,-3.5968866086912055,0.5942127606836727,9.502871615413444
2.18,-0.058695020179550125,0.060178927031636714,0.12149250452047261,-3.5979996565023775,0.609530657234614,9.497389001579107
2.19,-0.06027208138337546,0.05938401085703192,0.12105101621481086,-3.59887600879145,0.624898240758045,9.49192976694278
2.2,-0.06184522419622963,0.05858602445955874,0.12060830023396386,-3.5995157127594624,0.6403138990945072,9.486495620458737
2.21,-0.06341435376362087,0.05778501849112494,0.12016431784426629,-3.5999188457969353,0.6557760093279503,9.481088268719931
2.22,-0.0649793755344136,0.0569810438829534,0.11971903014674172,-3.6000855154315405,0.6712829378300302,9.475709415381553
2.23,-0.06654019526648879,0.05617415184489345,0.11927239808862376,-3.6000158592710783,0.6868330403074832,9.470360760585317
2.24,-0.06809671903238289,0.05536439386470367,0.11882438247493263,-3.5997100449418458,0.7024246618527097,9.465044000384786
2.25,-0.06964885322490247,0.05455182170730537,0.1183749439801051,-3.599168270022357,0.718056136997665,9.459760826171818
2.2600000000000002,-0.0711965045627165,0.053736487414002894,0.11792404315967486,-3.598390761972502,0.7337257897711689,9.45451292410434
2.27,-0.07273958009592377,0.05291844330166967,0.11747164046200097,-3.5973777780581457,0.7494319337597142,9.44930197453569
2.2800000000000002,-0.07427798721159726,0.052097741961896385,0.11701769624004159,-3.5961296052712024,0.76517287217193,9.444129651445591
2.29,-0.07581163363930303,0.05127443626010009,0.11656217076317049,-3.5946465602452387,0.7809468979067302,9.438997621873115
2.3000000000000003,-0.07734042745659557,0.050448579334590696,0.11610502422903345,-3.5929289891665994,0.7967522936253051,9.43390754535159
2.31,-0.07886427709448665,0.04962022459559369,0.11564621677544244,-3.5909772676811356,0.812587331826994,9.428861073345905
2.32,-0.08038309134289029,0.048789425724225385,0.1151857084923039,-3.5887918007965203,0.82845027492918,9.42385984869211
2.33,-0.08189677935604085,0.047956236671419676,0.11472345943357964,-3.586373022780225,0.8443393753512509,9.418905505039753
2.34,-0.08340525065788537,0.047120711656803024,0.11425942962927665,-3.583721397053167,0.8602528756027392,9.413999666296915
2.35,-0.08490841514745032,0.046282905167515584,0.11379357909746342,-3.580837416079076,0.8761890083757056,9.40914394607831
2.36,-0.08640618310418026,0.045442871956976466,0.11332586785631014,-3.577721601249591,0.8921459966414544,9.40433994715647
2.37,-0.08789846519325122,0.044600667043590406,0.11285625593614984,-3.574374502765162,0.9081220537516415,9.399589260916319
2.38,-0.089385172470855,0.043756345709393824,0.11238470339155748,-3.5707966995117486,0.9241153835438658,9.39489346681323
2.39,-0.09086621638945766,0.04290996349863796,0.11191117031344476,-3.5669887989333766,0.9401241804517844,9.390254131834801
2.4,-0.0923415088030283,0.042061576216306906,0.11143561684116712,-3.5629514369005815,0.9561466296198384,9.385672809966465
2.41,-0.09381096197224134,0.041211239926568,0.1109580031746403,-3.5586852775747753,0.9721809070226468,9.381151041661196
2.42,-0.09527448856964875,0.040359010951153074,0.11047828958646429,-3.554191013268561,0.9882251795891017,9.376690353313377
2.43,-0.09673200168482468,0.03950494586766752,0.10999643643405023,-3.5494693643020563,1.0042776053312545,9.372292256737119
2.44,-0.09818341482947979,0.03864910150782589,0.1095124041717492,-3.544521078855234,1.0203363334780076,9.36795824864911
2.45,-0.09962864194254735,0.037791534955611175,0.10902615336297825,-3.539346932816326,1.03639950461368,9.363689810156202
2.46,-0.10106759739523825,0.036932303545356426,0.10853764469234242,-3.533947729626343,1.052465250821475,9.359488406247943
2.47,-0.1025001959960674,0.03607146485974595,0.10804683897774801,-3.5283243001197215,1.0685316958318973,9.355355485294158
2.48,-0.10392635299584813,0.03520907672773469,0.10755369718250596,-3.5224775023611454,1.08459695517614,9.351292478547775
2.49,-0.10534598409265764,0.03434519722238334,0.10705818042742049,-3.516408221478582,1.1006591363444913,9.347300799653084
2.5,-0.10675900543677001,0.03347988465860778,0.10656025000286197,-3.5101173694925687,1.1167163389497565,9.343381844159573
2.5100000000000002,-0.10816533363555905,0.03261319759084024,0.10605986738081918,-3.503605885141779,1.1327666548957507,9.339536989041488
2.52,-0.10956488575836858,0.03174519481060119,0.10555699422692946,-3.4968747337049217,1.148808168550854,9.335767592223338
2.5300000000000002,-0.11095757934135234,0.030875935343979262,0.10505159241248219,-3.4899249068189797,1.1648389569266526,9.3320749921114
2.54,-0.11234333239227967,0.03000547844901834,0.10454362402639451,-3.4827574222938713,1.1808570898616744,9.328460507131538
2.5500000000000003,-0.11372206339531123,0.029133883613009125,0.1040330513871538,-3.475373323923522,1.1968606302102247,9.32492543527334
2.56,-0.11509369131573943,0.028261210549684546,0.10351983705472656,-3.46777368129343,1.2128476340363206,9.321471053640801
2.57,-0.11645813560469837,0.02738751919631635,0.10300394384242782,-3.459959589584715,1.2288161508127182,9.318098618009747
2.58,-0.11781531620383848,0.026512869710712084,0.10248533482875063,-3.4519321693747393,1.2447642236250391,9.314809362392035
2.59,-0.11916515354996865,0.02563732246811078,0.10196397336915031,-3.4436925664342954,1.2606898893809557,9.311604498606792
2.6,-0.12050756857966442,0.024760938057975197,0.10143982310778205,-3.4352419515214256,1.2765911790244644,9.30848521585881
2.61,-0.12184248273384168,0.023883777280680505,0.10091284798918755,-3.42658152017189,1.2924661177551688,9.30545268032417
2.62,-0.12316981796229635,0.023005901144096418,0.10038301226992828,-3.4177124924863467,1.3083127252526103,9.302508034743367
2.63,-0.12448949672820918,0.022127370860063195,0.09985028053016212,-3.4086361129142526,1.324129015905561,9.299652398021953
2.64,-0.12580144201261556,0.021248247840758506,0.09931461768515994,-3.3993536500345476,1.3399129990462937,9.296886864838937
2.65,-0.12710557731884037,0.020368593694955667,0.09877598899675934,-3.3898663963331415,1.3556626791897577,9.294212505263003
2.66,-0.1284018266768971,0.019488470224170468,0.09823436008475214,-3.380175667977249,1.3713760562776383,9.291630364376704
2.67,-0.12969011464785118,0.01860793941869706,0.09768969693820286,-3.3702828045866267,1.3870511259272518,9.289141461908827
2.68,-0.13097036632814765,0.017727063453530464,0.0971419659266946,-3.3601891690017114,1.402685879685222,9.286746791874943
2.69,-0.13224250735390208,0.01684590468417601,0.09659113381149936,-3.349896147048738,1.4182783052858876,9.284447322226354
2.7,-0.13350646390515525,0.015964525642343616,0.09603716775666984,-3.339405147301844,1.4338263869143855,9.282243994507525
2.71,-0.134762162710091,0.01508298903152738,0.09548003534004927,-3.3287176008422237,1.449328105474351,9.280137723522142
2.72,-0.13600953104921693,0.014201357722468206,0.09491970456419638,-3.3178349610143565,1.4647814388601588,9.278129397007909
2.73,-0.1372484967595078,0.013319694748500428,0.09435614386722213,-3.30675870317934,1.480184362233648,9.276219875320178
2.74,-0.13847898823851149,0.012438063300780164,0.09378932213353544,-3.2954903244653817,1.495534848305256,9.27440999112454
2.75,-0.13970093444841702,0.011556526723396356,0.09321920870449411,-3.284031343515492,1.510830867619474,9.27270054909852
2.7600000000000002,-0.14091426492008458,0.01067514850836254,0.0926457733889589,-3.2723833002323754,1.5260703888445626,9.271092325642407
2.77,-0.14211890975703723,0.009793992290490466,0.0920689864737463,-3.2605477555206175,1.5412513790664193,9.269586068599383
2.7800000000000002,-0.14331479963941401,0.008913121842143538,0.09148881873397813,-3.248526291026164,1.5563718040865404,9.268182496985057
2.79,-0.14450186582788452,0.008032601067871525,0.09090524144332399,-3.2363205088731384,1.5714296287239462,9.26688230072643
2.8000000000000003,-0.145680040167524,0.007152493998924654,0.09031822638413393,-3.22393203139805,1.5864228171210257,9.265686140410475
2.81,-0.14684925509164964,0.006272864787648547,0.08972774585745807,-3.2113625008814015,1.6013493330531396,9.264594647042333
2.82,-0.14800944362561713,0.0053937777017584055,0.0891337726929504,-3.1986135792767807,1.6162071402419467,9.263608421813318
2.83,-0.14916053939057783,0.004515297118493789,0.08853628025865279,-3.1856869479374197,1.6309942026722908,9.262728035878705
2.84,-0.1503024766071951,0.0036374875186532766,0.08793524247065802,-3.172584307340304,1.6457084849125763,9.261954030145425
2.85,-0.15143519009932188,0.0027604134805091635,0.08733063380264619,-3.1593073768078455,1.6603479524385043,9.261286915069793
2.86,-0.15255861529763645,0.0018841396736030795,0.08672242929529443,-3.145857894227161,1.6749105719600603,9.260727170465247
2.87,-0.15367268824323885,0.0010087308524219588,0.08611060456555397,-3.1322376157670115,1.6893943117516308,9.260275245320262
2.88,-0.1547773455912051,0.00013425184995558698,0.08549513581579457,-3.118448315592406,1.7037971419851314,9.2599315576264
2.89,-0.1558725246141021,-0.0007392324288646203,0.08487599984281038,-3.104491785576947,1.7181170350660258,9.25969649421668
2.9,-0.15695816320545933,-0.0016116570138441748,0.08425317404668724,-3.0903698350129303,1.7323519659720978,9.259570410614195
2.91,-0.15803419988320103,-0.002482956876321822,0.08362663643952566,-3.076084290319243,1.746499912594858,9.259553630891162
2.92,-0.15910057379303505,-0.0033530669360817902,0.08299636565401938,-3.0616369947471047,1.7605588560834535,9.25964644753833
2.93,-0.16015722471180116,-0.004221922068382322,0.08236234095188395,-3.0470298080836806,1.7745267811909304,9.259849121344887
2.94,-0.1612040930507761,-0.005089457111098596,0.08172454223213527,-3.032264606353613,1.7884016766227369,9.260161881288848
2.95,-0.1622411198589378,-0.005955606871980133,0.08108295003921229,-3.0173432815185084,1.8021815353873056,9.26058492443801
2.96,-0.1632682468261855,-0.006820306136020599,0.08043754557094429,-3.002267741174409,1.8158643551485834,9.261118415861446
2.97,-0.16428541628651883,-0.007683489672940079,0.07978831068635701,-2.987039908247305,1.829448138580371,9.261762488551657
2.98,-0.1652925712211726,-0.008545092244777548,0.07913522791331759,-2.9716617206867078,1.8429308937223106,9.262517243357278
2.99,-0.16628965526171005,-0.009405048613593344,0.07847828045601297,-2.9561351311573363,1.856310634337388,9.263382748926537
3.0,-0.16727661269307156,-0.010263293549279334,0.0778174522022621,-2.940462106728951,1.8695853802707956,9.26435904166129
3.0100000000000002,-0.16825338845658075,-0.011119761837476417,0.07715272773065651,-2.9246446285643657,1.8827531578100065,9.265446125681793
3.02,-0.16921992815290712,-0.011974388287596763,0.07648409231752859,-2.9086846916057,1.8958120000458918,9.266643972802155
3.0300000000000002,-0.17017617804498442,-0.01282710774095055,0.0758115319437445,-2.8925843042588726,1.9087599472347638,9.267952522516483
3.04,-0.17112208506088555,-0.013677855078974148,0.0751350333013188,-2.8763454880764234,1.9215950471611407,9.269371681995732
3.0500000000000003,-0.17205759679665347,-0.014526565231559568,0.07445458379984918,-2.8599702774386504,1.9343153555011217,9.270901326095245
3.06,-0.17298266151908745,-0.015373173185481906,0.07377017157276806,-2.8434607192331605,1.946918936186178,9.272541297372978
3.0700000000000003,-0.1738972281684855,-0.016217613992924384,0.07308178548340953,-2.826818872532799,1.9594038617672291,9.274291406118415
3.08,-0.17480124636134198,-0.01705982278009773,0.07238941513088858,-2.8100468082720873,1.9717682137788208,9.276151430392114
3.09,-0.1756946663930003,-0.01789973475595323,0.07169305085579099,-2.7931466089221155,1.9840100831032652,9.27812111607592
3.1,-0.17657743924026176,-0.018737285220986145,0.07099268374567096,-2.7761203681640074,1.9961275703345644,9.280200176933777
3.11,-0.1774495165639478,-0.019572409576128234,0.0702883056403557,-2.7589701905609525,2.0081187861419645,9.282388294683122
3.12,-0.17831085071141897,-0.02040504333172702,0.06957990913705253,-2.741698191228845,2.0199818516329744,9.284685119076842
3.13,-0.1791613947190471,-0.021235122116609065,0.06886748759525957,-2.724306495505612,2.031714898715694,9.28709026799572
3.14,-0.18000110231464336,-0.022062581687225677,0.06815103514147451,-2.7067972386192114,2.043316070460273,9.289603327551406
3.15,-0.18082992791983943,-0.02288735793687785,0.06743054667370318,-2.6891725653543883,2.0547835214593526,9.29222385219974
3.16,-0.18164782665242474,-0.023709386905018726,0.06670601786576241,-2.6714346297182057,2.0661154181873176,9.294951364864511
3.17,-0.18245475432863614,-0.024528604786630243,0.06597744517137887,-2.6535855946043965,2.077309939358205,9.29778535707151
3.18,-0.18325066746540317,-0.025344947941672268,0.06524482582807871,-2.6356276314565794,2.0883652762820955,9.300725289092862
3.19,-0.18403552328254624,-0.02615835290460062,0.06450815786086973,-2.6175629199303776,2.0992796332198296,9.303770590101536
3.2,-0.1848092797049297,-0.02696875639395204,0.06376744008571102,-2.59939364755448,2.110051227735891,9.306920658336004
3.21,-0.18557189536456745,-0.027776095321992718,0.06302267211277167,-2.5811220093906937,2.120678291049296,9.310174861274977
3.22,-0.1863233296026837,-0.028580306804428045,0.06227385434947435,-2.562750207693015,2.131159068382313,9.313532535822098
3.23,-0.1870635424717257,-0.029381328170170147,0.06152098800332461,-2.544280451565779,2.1414918193068817,9.316992988500566
3.24,-0.1877924947373316,-0.030179096971160765,0.06076407508452218,-2.5257149566209134,2.1516748180885377,9.32055549565759
3.25,-0.18851014788024992,-0.030973550992245902,0.06000311840835576,-2.5070559446343488,2.1617063540277157,9.324219303678545
3.2600000000000002,-0.18921646409821402,-0.031764628261099825,0.05923812159737682,-2.4883056432016195,2.1715847317982604,9.32798362921085
3.27,-0.18991140630776832,-0.032552267058194424,0.05846908908335452,-2.4694662853927163,2.1813082717829912,9.331847659397328
3.2800000000000002,-0.19059493814604875,-0.033336405926811793,0.05769602610900771,-2.4505401094061927,2.190875310406162,9.335810552119053
3.29,-0.19126702397251522,-0.03411698368309568,0.056918938729515506,-2.431529358222631,2.200284200462682,9.339871436247563
3.3000000000000003,-0.19192762887063808,-0.034893939426139484,0.05613783381380311,-2.4124362792574385,2.2095333114439235,9.344029411906309
3.31,-0.19257671864953638,-0.03566721254810677,0.05535271904560468,-2.393263124013081,2.2186210298599867,9.348283550741218
3.3200000000000003,-0.19321425984557006,-0.03643674274438146,0.054563602924299195,-2.3740121477307534,2.227545759558259,9.352632896200346
3.33,-0.1938402197238836,-0.03720247002374368,0.05377049476552219,-2.354685609041562,2.2363059220381474,9.357076463822379
3.34,-0.1944545662799039,-0.03796433471856851,0.05297340470154922,-2.335285769617233,2.244899956761805,9.361613241533954
3.35,-0.19505726824078912,-0.03872227749504348,0.0521723436814534,-2.31581489382041,2.2533263214607526,9.366242189955635
3.36,-0.19564829506683135,-0.03947623936340163,0.051367323471034544,-2.296275248354596,2.2615834924382128,9.37096224271643
3.37,-0.19622761695281132,-0.040226161688166395,0.050558356652520425,-2.276669101913752,2.2696699648670746,9.375772306776748
3.38,-0.19679520482930546,-0.04097198619840497,0.04974545662403959,-2.256998724831624,2.2775842530832886,9.380671262759552
3.39,-0.19735103036394563,-0.04171365499798587,0.04892863759886547,-2.237266388730832,2.2853248908746315,9.385657965289763
3.4,-0.19789506596263112,-0.04245111057583805,0.04810791460443156,-2.217474366171779,2.292890431764649,9.39073124334158
3.41,-0.19842728477069316,-0.0431842958162064,0.04728330348111775,-2.197624930301399,2.3002794492916996,9.39588990059367
3.42,-0.19894766067401132,-0.043913154008901605,0.0464548208808076,-2.177720354501819,2.307490537282942,9.401132715792105
3.43,-0.19945616830008284,-0.04463762885953892,0.04562248426521668,-2.157762912038974,2.314522310123179,9.406458443120854
3.44,-0.19995278301904373,-0.04535766449976352,0.04478631190399226,-2.1377548757112,2.321373403018401,9.411865812579652
3.45,-0.20043748094464245,-0.04607320549745732,0.04394632287258441,-2.1176985174978844,2.328042472253953,9.41735353036917
3.46,-0.20091023893516544,-0.046784196866924664,0.043102537049889,-2.097596108208198,2.334528195447196,9.422920279283279
3.47,-0.20137103459431543,-0.04749058407905181,0.04225497511566281,-2.077449917129961,2.340829271794554,9.428564719108259
3.48,-0.2018198462720413,-0.0481923130714376,0.0414036585477115,-2.057262211678698,2.346944422312843,9.43428548702877
3.49,-0.202256653065321,-0.04888933025849008,0.040548609618850706,-2.037035257046922,2.3528723900748068,9.440081198040504
3.5,-0.20268143481889572,-0.04958158254148661,0.03968985139364135,-2.016771315853692,2.3586119404387036,9.445950445369213
3.5100000000000002,-0.2030941721259571,-0.05026901731859212,0.03882740772489937,-1.9964726477945036,2.3641618612719224,9.451891800896087
3.52,-0.20349484632878606,-0.050951582494833045,0.0379613032499813,-1.9761415092915604,2.369520963168479,9.457903815589239
3.5300000000000002,-0.20388343951934448,-0.051629226492021535,0.03709156338684602,-1.9557801531444552,2.374688079660342,9.463985019941111
3.54,-0.20425993453981864,-0.052301898258627494,0.03621821432989429,-1.9353908281813381,2.3796620674224864,9.470133924411694
3.5500000000000003,-0.20462431498311495,-0.052969547279593174,0.03534128304558664,-1.9149757789106046,2.3844418064716053,9.476349019877313
3.56,-0.20497656519330834,-0.053632123586087696,0.034460797267841126,-1.8945372451731477,2.3890262003583973,9.482628778084843
3.5700000000000003,-0.20531667026604272,-0.054289577765196204,0.033576785493212094,-1.874077461795248,2.393414176353368,9.488971652111184
3.58,-0.20564461604888384,-0.05494186096954123,0.03268927697585125,-1.8535986582421258,2.397604685626068,9.495376076827819
3.59,-0.2059603891416244,-0.05558892492683091,0.03179830172225276,-1.833103058272212,2.401596703417707,9.501840469370153
3.6,-0.2062639768965421,-0.0562307219493315,0.030903890485783174,-1.8125928795922035,2.4053892292070835,9.508363229611719
3.61,-0.20655536741860933,-0.05686720494325903,0.03000607476099927,-1.7920703335129389,2.4089812868697864,9.514942740642732
3.62,-0.20683454956565628,-0.05749832741808754,0.029104886777753112,-1.7715376246061392,2.4123719248305857,9.521577369253125
3.63,-0.20710151294848583,-0.05812404349576873,0.028200359495089145,-1.7509969503620988,2.415560216209009,9.52826546641962
3.64,-0.20735624793094184,-0.05874430791986047,0.02729252659493191,-1.7304505008483235,2.418545258958012,9.535005367796826
3.65,-0.20759874562992933,-0.05935907606455908,0.0263814224755696,-1.7099004583692274,2.4213261759957496,9.541795394212091
3.66,-0.2078289979153881,-0.05996830394363305,0.02546708224493223,-1.689348997126885,2.4239021153303666,9.548633852163952
3.67,-0.2080469974102185,-0.0605719482192527,0.024549541713669756,-1.6687982828829466,2.4262722501778264,9.555519034323964
3.68,-0.2082527374901609,-0.06116996621071399,0.023628837388029147,-1.6482504726217089,2.428435779072697,9.562449220041776
3.69,-0.20844621228362725,-0.06176231590305083,0.0227050064625358,-1.6277077142144498,2.4303919259719216,9.56942267585319
3.7,-0.20862741667148624,-0.0623489559555339,0.02177808681247855,-1.6071721460850423,2.432139940351514,9.5764376559911
3.71,-0.20879634628680135,-0.0629298457100512,0.020848116986203823,-1.5866458968769157,2.4336790972961944,9.583492402899038
3.72,-0.20895299751452226,-0.06350494519936732,0.019915136197218318,-1.5661310851214134,2.4350086975819325,9.590585147747193
3.73,-0.20909736749112934,-0.06407421515525745,0.01897918431610586,-1.545629818907611,2.436128067751409,9.597714110950696
3.74,-0.2092294541042316,-0.06463761701651319,0.018040301862258048,-1.525144195553621,2.4370365601823787,9.604877502689996
3.75,-0.2093492559921181,-0.06519511293681594,0.017098529995424522,-1.5046763012794822,2.4377335531489486,9.612073523433102
3.7600000000000002,-0.20945677254326303,-0.06574666579247516,0.016153910507082474,-1.484228210881636,2.4382184508757683,9.619300364459558
3.77,-0.20955200389578438,-0.06629223919002739,0.015206485811631563,-1.463801987409091,2.4384906835851514,9.626556208385907
3.7800000000000002,-0.20963495093685633,-0.06683179747369347,0.014256298937413817,-1.4433996818412895,2.4385497075371307,9.633839229692509
3.79,-0.2097056153020755,-0.06736530573268981,0.013303393517564975,-1.423023332767769,2.438395005062475,9.641147595251471
3.8000000000000003,-0.20976399937478155,-0.06789272980839138,0.0123478137806969,-1.40267496606964,2.438026084588684,9.648479464855575
3.81,-0.20981010628533148,-0.0684140363013422,0.0113896045414177,-1.3823565946029537,2.437442480658997,9.655832991747944
3.8200000000000003,-0.2098439399103283,-0.0689291925781114,0.010428811190689315,-1.3620702178840074,2.436643753944424,9.663206323152318
3.83,-0.2098655048718042,-0.06943816677799045,0.009465479686029303,-1.3418178217766494,2.435629491248863,9.670597600803724
3.84,-0.20987480653635793,-0.06994092781952971,0.008499656541556823,-1.3216013781816272,2.4343993055073145,9.67800496147939
3.85,-0.2098718510142473,-0.07043744540691077,0.007531388817889271,-1.3014228447280385,2.4329528357772485,9.685426537529684
3.86,-0.20985664515843572,-0.07092769003615142,0.006560724111890794,-1.2812841644669573,2.4312897472231723,9.692860457408935
3.87,-0.20982919656359433,-0.07141163300114128,0.0055877105462774235,-1.2611872655672545,2.4294097310944407,9.700304846205958
3.88,-0.20978951356505882,-0.07188924639950442,0.004612396759082036,-1.241134061013702,2.427312504696354,9.707757826174037
3.89,-0.20973760523774118,-0.07236050313828683,0.003634831892982839,-1.2211264483073947,2.424997811354634,9.715217517260339
3.9,-0.20967348139499753,-0.07282537693946586,0.002655065584499112,-1.2011663091685645,2.422465420373285,9.722682037634389
3.91,-0.20959715258745068,-0.07328384234527933,0.0016731479530579568,-1.181255509241815,2.4197151269859667,9.730149504215667
3.92,-0.2095086301017686,-0.07373587472337137,0.000689129589935856,-1.1613958978038619,2.416746752300875,9.73761803319989
3.93,-0.20940792595939878,-0.0741814502717532,-0.00029693845292107435,-1.1415893074738102,2.4135601432392795,9.745085740584088
3.94,-0.2092950529152585,-0.07462054602357578,-0.0012850046741942462,-1.121837553926044,2.410155172467717,9.752550742690085
3.95,-0.20917002445638105,-0.07505313985171293,-0.0022750171346032125,-1.1021424356057596,2.4065317383239773,9.760011156686359
3.96,-0.20903285480051836,-0.07547921047315179,-0.003266923468425733,-1.082505733447231,2.402689764736926,9.767465101108069
3.97,-0.2088835588947002,-0.07589873745318942,-0.004260670895123248,-1.062929210594822,2.398629201140258,9.774910696375066
3.98,-0.2087221524137496,-0.07631170120943266,-0.005256206231067689,-1.043414612126844,2.394350022380281,9.782346065307804
3.99,-0.20854865175875567,-0.07671808301560024,-0.0062534759013654784,-1.023963664782266,2.3898522286177917,9.789769333640898
4.0,-0.20836307405550286,-0.07711786500512419,-0.00725242595177461,-1.0045780766903947,2.3851358452241715,9.797178630534317
4.01,-0.20816543715285765,-0.07751103017455002,-0.008253002060710573,-0.985259537103498,2.380200922671765,9.80457208908187
4.0200000000000005,-0.20795575962111248,-0.0778975623867327,-0.00925514955133696,-0.9660097161325106,2.375047536418658,9.811947846817025
4.03,-0.2077340607502874,-0.07827744637382773,-0.01025881340373616,-0.9468302644858216,2.3696757867879583,9.819304046215825
4.04,-0.2075003605483892,-0.07865066774007562,-0.011263938267156952,-0.9277228132112063,2.3640857988416655,9.826638835196736
4.05,-0.20725467973962852,-0.0790172129643779,-0.012270468472332815,-0.9086889734409817,2.358277722249256,9.833950367617346
4.0600000000000005,-0.20699703976259523,-0.07937706940266401,-0.01327834804386857,-0.8897303361404044,2.3522517311510813,9.84123680376776
4.07,-0.20672746276839216,-0.07973022529004677,-0.01428752071268948,-0.8708484718594106,2.3460080240166836,9.848496310860531
4.08,-0.20644597161872677,-0.0800766697427669,-0.015297929928549977,-0.8520449304876846,2.3395468234981625,9.855727063517035
4.09,-0.20615258988396237,-0.08041639275992368,-0.016309518872595626,-0.8333212410131879,2.3328683762786873,9.862927244250121
4.1,-0.20584734184112785,-0.08074938522499192,-0.017322230469975795,-0.8146789112841386,2.3259729529162856,9.87009504394295
4.11,-0.20553025247188628,-0.08107563890712412,-0.018336007402501887,-0.7961194277745277,2.3188608476830193,9.87722866232386
4.12,-0.20520134746046353,-0.08139514646223667,-0.019350792121345856,-0.7776442553532221,2.311532378399674,9.884326308437174
4.13,-0.20486065319153582,-0.08170790143388,-0.020366526859776475,-0.7592548370566815,2.3039878862660874,9.891386201109807
4.14,-0.2045081967480775,-0.0820138982538913,-0.021383153645926956,-0.740952593865381,2.2962277356872356,9.89840656941356
4.15,-0.20414400590916837,-0.08231313224282984,-0.022400614315591,-0.7227389244839562,2.288252314095201,9.905385653123034
4.16,-0.2037681091477619,-0.08260559961019419,-0.02341885052504121,-0.7046152051251526,2.280062031767159,9.912321703168919
4.17,-0.20338053562841318,-0.08289129745442134,-0.02443780376386752,-0.6865827892975903,2.2716573216395215,9.919212982086789
4.18,-0.20298131520496804,-0.08317022376266676,-0.0254574153678291,-0.6686430075974359,2.2630386391183297,9.926057764461046
4.19,-0.20257047841821274,-0.08344237741036609,-0.026477626531716897,-0.6507971675040136,2.2542064618860715,9.932854337364082
4.2,-0.20214805649348516,-0.08370775816057748,-0.02749837832222079,-0.6330465531794028,2.2451612897050417,9.939601000790482
4.21,-0.20171408133824723,-0.08396636666310593,-0.02851961169079892,-0.6153924252720685,2.235903644217359,9.946296068086237
4.22,-0.20126858553961846,-0.08421820445340804,-0.02954126748654284,-0.59783602072459,2.226434068741812,9.952937866372784
4.23,-0.20081160236187218,-0.0844632739512788,-0.03056328646903551,-0.5803785525855176,2.216753128067632,9.959524736965875
4.24,-0.20034316574389346,-0.08470157845931997,-0.031585609321196285,-0.5630212098254295,2.206861408245367,9.96605503578917
4.25,-0.19986331029659907,-0.08493312216119085,-0.032608176662110515,-0.5457651571571884,2.196759516374957,9.972527133782396
4.26,-0.19937207130032045,-0.08515791011964159,-0.03363092905983732,-0.5286115348605166,2.186448080391181,9.97893941730412
4.2700000000000005,-0.19886948470214913,-0.08537594827432984,-0.03465380704419288,-0.5115614586108622,2.175927748846588,9.985290288528942
4.28,-0.19835558711324586,-0.08558724343942123,-0.03567675111950325,-0.49461601931266375,2.1651991906920722,9.991578165839103
4.29,-0.1978304158061122,-0.08579180330097483,-0.036699701777324456,-0.4777762829370037,2.1542630950552133,9.997801484210415
4.3,-0.1972940087118262,-0.08598963641411393,-0.03772259950912375,-0.46104329036374503,2.143120171016538,10.00395869559247
4.3100000000000005,-0.1967464044172418,-0.08618075219998331,-0.038745384818919024,-0.4444180572281601,2.1317711473838257,10.010048269283004
4.32,-0.19618764216215234,-0.08636516094249407,-0.03976799823587094,-0.42790157377211835,2.120216772464616,10.016068692296425
4.33,-0.19561776183641835,-0.08654287378485734,-0.04079038032682561,-0.41149480469984434,2.108457813837035,10.022018469726397
4.34,-0.19503680397705978,-0.08671390272590754,-0.041812471708801285,-0.395198689038333,2.096495058119101,10.027896125102435
4.3500000000000005,-0.19444480976531345,-0.08687826061621683,-0.042834213061417145,-0.3790141400024192,2.0843293107366296,10.033700200740482
4.36,-0.19384182102365527,-0.08703596115400206,-0.043855545139258025,-0.3629420448645819,2.0719613956898995,10.039429258087381
4.37,-0.19322788021278808,-0.08718701888082601,-0.04487640878417343,-0.3469832648294757,2.0593921553192,10.045081878059229
4.38,-0.1926030304285949,-0.08733144917709369,-0.045896744937504654,-0.33113863491328255,2.0466224500693833,10.050656661373512
4.39,-0.191967315399058,-0.08746926825734613,-0.04691649465223767,-0.3154089638278782,2.0336531582536033,10.056152228875066
4.4,-0.19132077948114498,-0.08760049316535277,-0.04793559910507681,-0.2997950338698786,2.0204851758163347,10.061567221855725
4.41,-0.19066346765766004,-0.08772514176900476,-0.048953999608436126,-0.2842976008145891,2.007119416095829,10.066900302367703
4.42,-0.1899954255340628,-0.0878432327550107,-0.04997163762234463,-0.268917393814889,1.9935568095861327,10.072150153530611
4.43,-0.18931669933525389,-0.08795478562339673,-0.05098845476626129,-0.25365511530510576,1.9797983036988085,10.077315479832153
4.44,-0.18862733590232772,-0.08805982068181316,-0.05200439283079605,-0.23851144090989274,1.9658448625244864,10.082395007422337
4.45,-0.18792738268929313,-0.08815835903964991,-0.05301939378933382,-0.22348701935816107,1.9516974665943858,10.087387484401347
4.46,-0.18721688775976114,-0.0882504226019625,-0.05403339980955762,-0.20858247240207295,1.9373571126419162,10.092291681100901
4.47,-0.18649589978360145,-0.08833603406321104,-0.055046353264867356,-0.1937983947411599,1.9228248133645183,10.097106390359178
4.48,-0.18576446803356703,-0.0884152169008147,-0.056058196745690264,-0.1791353539515792,1.908101597185846,10.101830427789217
4.49,-0.1850226423818874,-0.08848799536852403,-0.05706887307068059,-0.16459389042053285,1.8931885080184319,10.106462632040802
4.5,-0.18427047329683074,-0.08855439448961315,-0.05807832529780483,-0.15017451728588715,1.878086605026944,10.111001865055842
4.51,-0.18350801183923515,-0.08861444004989497,-0.05908649673530899,-0.1358777203810252,1.8627969623921825,10.115447012317171
4.5200000000000005,-0.1827353096590098,-0.08866815859056155,-0.06009333095256475,-0.12170395818494906,1.8473206690759123,10.119796983090833
4.53,-0.18195241899160525,-0.08871557740085258,-0.0610987717907915,-0.10765366177765945,1.8316588285866775,10.12405071066176
4.54,-0.1811593926544541,-0.08875672451055452,-0.06210276337365193,-0.09372723480083844,1.8158125587466778,10.128207152562883
4.55,-0.18035628404338208,-0.08879162868233322,-0.06310525011771671,-0.07992505342386524,1.7997829914598706,10.132265290797672
4.5600000000000005,-0.1795431471289894,-0.08882031940390288,-0.06410617674279644,-0.06624746631518008,1.7835712724813828,10.136224132056112
4.57,-0.17872003645300366,-0.08884282688003425,-0.06510548828213755,-0.05269479461902382,1.7671785611883506,10.140082707924021
4.58,-0.17788700712460295,-0.08885918202440515,-0.06610313009248009,-0.03926733193755949,1.7506060303522997,10.143840075085851
4.59,-0.17704411481671115,-0.08886941645129595,-0.06709904786397378,-0.025965344318416905,1.7338548659131776,10.147495315520864
4.6000000000000005,-0.17619141576226488,-0.08887356246713346,-0.06809318762995,-0.012789070247670176,1.7169262667551415,10.151047536692714
4.61,-0.17532896675045234,-0.08887165306188648,-0.06908549577654736,0.0002612793517458023,1.6998214444842172,10.154495871732486
4.62,-0.17445682512292443,-0.08886372190031544,-0.0700759190521889,0.013185521116151677,1.6825416232079056,10.157839479615124
4.63,-0.17357504876997845,-0.08884980331308004,-0.07106440457690726,0.0259834992317578,1.6650880393168608,10.161077545329285
4.64,-0.1726836961267153,-0.08882993228770807,-0.07205089985151614,0.03865508541980378,1.6474619412687426,10.164209280040676
4.65,-0.1717828261691686,-0.08880414445942826,-0.07303535276662684,0.051200178916199324,1.6296645893743027,10.16723392124878
4.66,-0.17087249841040908,-0.08877247610187128,-0.0740177116115051,0.06361870644564227,1.6116972555858575,10.170150732937103
4.67,-0.1699527728966207,-0.08873496411764117,-0.07499792508276994,0.07591062219021116,1.59356122328816,10.17295900571684
4.68,-0.16902371020315252,-0.08869164602876184,-0.07597594229292842,0.08807590775241803,1.5752577870918472,10.175658056964068
4.69,-0.16808537143054386,-0.0886425599670013,-0.07695171277874804,0.1001145721127259,1.556788252629467,10.178247230950408
4.7,-0.167137818200525,-0.08858774466407732,-0.07792518650946145,0.11202665158150193,1.5381539363542551,10.180725898967232
4.71,-0.16618111265199156,-0.0885272394417482,-0.0788963138948059,0.12381220974542573,1.5193561653416312,10.18309345944339
4.72,-0.16521531743695544,-0.08846108420179186,-0.07986504579289132,0.13547133740833162,1.500396277093615,10.185349338056481
4.73,-0.16424049571647004,-0.08838931941587734,-0.08083133351789903,0.14700415252649135,1.4812756193461478,10.187492987837707
4.74,-0.16325671115653273,-0.08831198611533198,-0.08179512884760684,0.1584108001383251,1.4619955498794417,10.18952388927031
4.75,-0.16226402792396163,-0.08822912588080771,-0.08275638403074204,0.16969145228855864,1.442557436331393,10.191441550381633
4.76,-0.16126251068225037,-0.08814078083185078,-0.08371505179415759,0.18084630794680517,1.4229626560141717,10.193245506828776
4.7700000000000005,-0.1602522245873981,-0.08804699361637813,-0.0846710853498335,0.19187559292059547,1.4032125957340014,10.19493532197795
4.78,-0.15923323528371838,-0.08794780740006393,-0.08562443840169916,0.20277955976284157,1.383308651614251,10.196510586977489
4.79,-0.15820560889962265,-0.08784326585564074,-0.08657506515227893,0.21355848767375368,1.3632522289218194,10.197970920824533
4.8,-0.15716941204338394,-0.08773341315211809,-0.08752292030915651,0.22421268239720804,1.3430447418969722,10.199315970425502
4.8100000000000005,-0.1561247117988761,-0.08761829394392319,-0.08846795909125997,0.2347424761115785,1.3226876135865817,10.20054541065022
4.82,-0.15507157572129354,-0.08749795335996668,-0.08941013723496434,0.2451482273150305,1.3021822756809158,10.2016589443799
4.83,-0.1540100718328466,-0.08737243699263773,-0.09034941100001376,0.2554303207053088,1.2815301683539424,10.202656302548903
4.84,-0.15294026861843804,-0.08724179088673219,-0.09128573717525913,0.2655891670540001,1.2607327401072579,10.203537244180257
4.8500000000000005,-0.15186223502131696,-0.08710606152831717,-0.09221907308421395,0.27562520307532046,1.2397914476176444,10.20430155641511
4.86,-0.15077604043871326,-0.08696529583353677,-0.09314937659042477,0.2855388912894019,1.2187077555883445,10.204949054536028
4.87,-0.14968175471745,-0.08681954113736143,-0.0940766061026594,0.29533071988013315,1.1974831366040075,10.20547958198415
4.88,-0.14857944814953736,-0.08666884518228599,-0.09500072057990858,0.30500120254753627,1.1761190709894447,10.205893010370332
4.89,-0.14746919146774531,-0.08651325610697926,-0.09592167953620426,0.31455087835472795,1.1546170466721484,10.206189239480217
4.9,-0.14635105584115787,-0.0863528224348897,-0.09683944304525197,0.32398031156946355,1.1329785590486434,10.20636819727328
4.91,-0.14522511287070708,-0.08618759306281035,-0.09775397174487838,0.3332900915002929,1.1112051108546965,10.206429839875904
4.92,-0.14409143458468876,-0.08601761724940689,-0.09866522684129414,0.34248083232735593,1.0892982120393728,10.20637415156846
4.93,-0.1429500934342586,-0.08584294460371317,-0.09957317011317104,0.35155317292783356,1.067259379643017,10.20620114476648
4.94,-0.14180116228891093,-0.08566362507359729,-0.10047776391553453,0.36050777669608464,1.0450901376791348,10.2059108599959
4.95,-0.14064471443193877,-0.08547970893420222,-0.10137897118347143,0.36934533135848907,1.0227920170202156,10.20550336586243
4.96,-0.1394808235558757,-0.08529124677636464,-0.10227675543565341,0.3780665487830353,1.0003665552874814,10.204978759015072
4.97,-0.13830956375792042,-0.08509828949501608,-0.10317108077767635,0.38667216478367655,0.9778152967446092,10.204337164103785
4.98,-0.1371310095353444,-0.08490088827756949,-0.10406191190521587,0.3951629389194812,0.9551397921954108,10.203578733731392
4.99,-0.13594523578088225,-0.08469909459229538,-0.10494921410699984,0.40353965428861965,0.9323415988854826,10.202703648399664
5.0,-0.13475231777810456,-0.08449296017669075,-0.10583295326759871,0.41180311731721403,0.9094222804078227,10.201712116449698
5.01,-0.13355233119677545,-0.08428253702584501,-0.10671309587003364,0.41995415754309073,0.8863834066124165,10.200604373996553
5.0200000000000005,-0.1323453520881934,-0.08406787738080614,-0.10758960899820363,0.4279936273944701,0.8632265535198065,10.19938068485819
5.03,-0.13113145688051653,-0.08384903371695065,-0.1084624603391317,0.4359224019636244,0.8399533032386179,10.198041340478762
5.04,-0.1299107223740709,-0.08362605873236104,-0.10933161818503354,0.4437413787755564,0.8165652438870179,10.196586659846231
5.05,-0.1286832257366456,-0.08339900533621433,-0.11019705143520489,0.45145147755173426,0.7930639695181627,10.19501698940442
5.0600000000000005,-0.12744904449877104,-0.08316792663718514,-0.11105872959773375,0.4590536399689119,0.7694510800495382,10.193332702959426
5.07,-0.1262082565489838,-0.08293287593186677,-0.11191662279103443,0.46654882941309905,0.7457281811962408,10.191534201580481
5.08,-0.1249609401290748,-0.08269390669321354,-0.112770701745208,0.4739380307287063,0.7218968844081362,10.189621913495316
5.09,-0.1237071738293262,-0.08245107255900815,-0.11362093780322693,0.4812222499629314,0.6979588068109135,10.187596293979938
5.1000000000000005,-0.1224470365837317,-0.08220442732035751,-0.11446730292194786,0.48840251410540997,0.6739155711509803,10.185457825242992
5.11,-0.12118060766520533,-0.08195402491021989,-0.11530976967295221,0.49547987082319656,0.6497688057442006,10.183207016304602
5.12,-0.119907966680774,-0.08169991939196658,-0.11614831124321785,0.5024553881911208,0.6255201444284038,10.180844402869827
5.13,-0.11862919356676024,-0.08144216494798293,-0.11698290143562007,0.5093301544175733,0.6011712265196962,10.178370547196643
5.14,-0.11734436858394955,-0.08118081586830941,-0.11781351466926696,0.5161052775657604,0.5767236967724858,10.175786037958574
5.15,-0.11605357231274616,-0.08091592653932815,-0.11864012597966841,0.5227818852705025,0.5521792053432177,10.173091490101964
5.16,-0.11475688564831633,-0.08064755143249691,-0.11946271101874087,0.5293611244506048,0.5275394077577715,10.17028754469786
5.17,-0.11345438979571949,-0.08037574509313401,-0.12028124605464999,0.535844161016889,0.5028059648824703,10.16737486878862
5.18,-0.11214616626502741,-0.08010056212925698,-0.12109570797149231,0.5422321795759106,0.4779805428986861,10.164354155229205
5.19,-0.11083229686643228,-0.07982205720047839,-0.12190607426881803,0.5485263831294446,0.4530648132809727,10.161226122523193
5.2,-0.10951286370534305,-0.07954028500696136,-0.12271232306099641,0.5547279927697794,0.428060452778686,10.157991514653556
5.21,-0.10818794917747096,-0.07925530027843805,-0.12351443307642593,0.560838247370906,0.40296914340104584,10.154651100908186
5.22,-0.10685763596390431,-0.07896715776329383,-0.12431238365659103,0.5668584032756377,0.3777925724055846,10.15120567570024
5.23,-0.10552200702617272,-0.07867591221771975,-0.12510615475496717,0.5727897339787403,0.3525324322899337,10.147656058383292
5.24,-0.10418114560130108,-0.07838161839493683,-0.12589572693577644,0.5786335298061253,0.32719042078689364,10.144003093061322
5.25,-0.10283513519685375,-0.07808433103449385,-0.12668108137259543,0.5843910975901947,0.30176824086270493,10.140247648393538
5.26,-0.1014840595859688,-0.07778410485164218,-0.12746219984681792,0.5900637603413746,0.276267600718513,10.136390617394158
5.2700000000000005,-0.10012800280238297,-0.07748099452678989,-0.12823906474597382,0.5956528569159248,0.2506902137949045,10.132432917226991
5.28,-0.09876704913544732,-0.0771750546950378,-0.12901165906190726,0.6011597416800847,0.22503779877950558,10.128375488995037
5.29,-0.09740128312513405,-0.07686633993579994,-0.12977996638881495,0.6065857841706406,0.1993120796175285,10.12421929752499
5.3,-0.09603078955703462,-0.076554904762511,-0.1305439709211483,0.6119323687519603,0.17351478552523814,10.119965331146696
5.3100000000000005,-0.09465565345734948,-0.07624080361242302,-0.1313036574513804,0.617200894269592,0.14764765100624633,10.115614601467653
5.32,-0.09327596008786934,-0.07592409083649397,-0.13205901136764087,0.6223927737004811,0.12171241587058246,10.1111681431425
5.33,-0.0918917949409491,-0.07560482068937009,-0.13281001865122002,0.6275094337999002,0.09571082525642716,10.106627013637512
5.34,-0.09050324373447355,-0.07528304731946475,-0.13355666587394627,0.6325523147451464,0.0696446296544937,10.101992292990202
5.3500000000000005,-0.08911039240681604,-0.07495882475913551,-0.13429894019543656,0.6375228697760954,0.04351558493492558,10.097265083563974
5.36,-0.08771332711178972,-0.07463220691496213,-0.13503682936022515,0.6424225648326822,0.017325452376677486,10.092446509797913
5.37,-0.0863121342135921,-0.07430324755812681,-0.13577032169477055,0.6472528781894012,-0.008924001300749662,10.087537717951644
5.38,-0.08490690028174284,-0.07397200031489957,-0.13649940610434466,0.6520153000868801,-0.03523100390324707,10.082539875845395
5.39,-0.0834977120860152,-0.07363851865723005,-0.1372240720698058,0.656711332360633,-0.06159377772583241,10.077454172595214
5.4,-0.08208465659136109,-0.07330285589344802,-0.13794430964425847,0.6613424880670555,-0.0880105395142472,10.072281818343374
5.41,-0.08066782095283058,-0.07296506515907424,-0.13866010944960164,0.6659102911067504,-0.11447950042450916,10.067024043983999
5.42,-0.07924729251048543,-0.07262519940774369,-0.13937146267296893,0.6704162758452742,-0.14099886598050215,10.06168210088395
5.43,-0.07782315878430741,-0.07228331140224274,-0.14007836106306257,0.6748619867313707,-0.16756683602969602,10.056257260598978
5.44,-0.07639550746910123,-0.07193945370566186,-0.14078079692638365,0.679248977912791,-0.19418160469708923,10.050750814585157
5.45,-0.07496442642939274,-0.07159367867266582,-0.14147876312336144,0.6835788128497738,-0.22084136033744972,10.045164073905656
5.46,-0.07353000369432224,-0.07124603844088263,-0.14217225306438416,0.6878530639262858,-0.24754428548598106,10.039498368932838
5.47,-0.07209232745253347,-0.07089658492241288,-0.14286126070573357,0.6920733120590923,-0.27428855680746533,10.033755049045753
5.48,-0.07065148604705847,-0.07054536979546076,-0.14354578054542616,0.6962411463047561,-0.30107234504401115,10.027935482323041
5.49,-0.06920756797019806,-0.07019244449608852,-0.14422580761896334,0.7003581634646422,-0.3278938149614845,10.022041055231217
5.5,-0.06776066185839918,-0.06983786021009525,-0.14490133749499318,0.7044259676880394,-0.3547511252947362,10.016073172308479
5.51,-0.06631085648712821,-0.06948166786502154,-0.14557236627088613,0.7084461700734535,-0.38164242869170106,10.01003325584396
5.5200000000000005,-0.06485824076574143,-0.06912391812228108,-0.14623889056822761,0.7124203882681936,-0.40856587165650327,10.003922745552515
5.53,-0.063402903732352,-0.06876466136942067,-0.14690090752822932,0.7163502460663178,-0.43551959449161814,9.99774309824507
5.54,-0.0619449345486947,-0.06840394771250911,-0.14755841480706283,0.72023737300505,-0.4625017312392592,9.99149578749452
5.55,-0.06048442249498777,-0.06804182696865686,-0.1482114105711166,0.724083403959741,-0.48951040962202974,9.98518230329728
5.5600000000000005,-0.059021456964792475,-0.06767834865866657,-0.14885989349218065,0.7278899787374762,-0.5165437509829758,9.978804151730467
5.57,-0.057556127459870605,-0.06731356199981618,-0.1495038627425596,0.7316587416694158,-0.5435998702251374,9.972362854604789
5.58,-0.05608852358504022,-0.0669475158987749,-0.15014331799011807,0.7353913412019699,-0.5706768757507155,9.965859949113096
5.59,-0.054618735043029734,-0.06658025894465319,-0.15077825939326,0.739089429486889,-0.5977728693999382,9.959296987474769
5.6000000000000005,-0.0531468516293305,-0.06621183940218733,-0.1514086875958448,0.7427546619703731,-0.6248859463897432,9.95267553657585
5.61,-0.05167296322704838,-0.06584230520505976,-0.15203460372204275,0.7463886969812827,-0.6520141952523837,9.945997177605026
5.62,-0.05019715980175441,-0.06547170394935467,-0.15265600937113202,0.7499931953185679,-0.6791556977740894,9.939263505685497
5.63,-0.048719531396334614,-0.06510008288715091,-0.15327290661223988,0.7535698198379746,-0.7063085289338358,9.932476129502728
5.64,-0.0472401681258397,-0.06472748892025179,-0.15388529797903017,0.7571202350381621,-0.7334707568423875,9.925636670928222
5.65,-0.045759160172333425,-0.0643539685940524,-0.15449318646434065,0.7606461066462895,-0.7606404426816955,9.918746764639232
5.66,-0.044276597779743444,-0.06397956809154531,-0.15509657551477002,0.7641491012032016,-0.787815640644753,9.91180805773458
5.67,-0.042792571248709166,-0.06360433322746435,-0.15569546902522058,0.7676308856482812,-0.8149943978760561,9.904822209346536
5.68,-0.04130717093143261,-0.06322830944256728,-0.1562898713333959,0.7710931269040773,-0.8421747544127378,9.897790890248839
5.69,-0.03982048722652783,-0.06285154179805769,-0.1568797872142575,0.7745374914608022,-0.8693547431265123,9.890715782460973
5.7,-0.038332610573874354,-0.06247407497014597,-0.15746522187444117,0.7779656449607949,-0.8965323896665212,9.88359857884862
5.71,-0.036843631449467826,-0.06209595324474954,-0.15804618094663853,0.7813792517830448,-0.9237057124032346,9.876440982720448
5.72,-0.035353640360275156,-0.061717220512333075,-0.1586226704839415,0.7847799746278703,-0.9508727223734548,9.869244707421247
5.73,-0.03386272783908887,-0.06133792026288777,-0.15919469695415667,0.7881694741018477,-0.978031423226605,9.86201147592149
5.74,-0.03237098443938634,-0.06095809558105082,-0.1597622672340875,0.7915494083030983,-1.0051798111723347,9.854743020403324
5.75,-0.030878500730187254,-0.06057778914136402,-0.16032538860379003,0.7949214324070086,-1.0323158749296573,9.84744108184315
5.76,-0.02938536729091641,-0.06019704320367198,-0.16088406874080208,0.7982871982524988,-1.0594375956776245,9.840107409590729
5.7700000000000005,-0.027891674706266613,-0.05981589960865995,-0.16143831571434944,0.8016483539289204,-1.0865429470077244,9.83274376094496
5.78,-0.026397513561067305,-0.05943439977353073,-0.16198813797952952,0.8050065433636959,-1.1136298948780714,9.825351900726412
5.79,-0.024902974435152467,-0.05905258468782028,-0.16253354437147682,0.8083634059107785,-1.1406963975695463,9.817933600846583
5.8,-0.02340814789823454,-0.058670494909352576,-0.1630745440995103,0.8117205759400369,-1.167740405643938,9.810490639874022
5.8100000000000005,-0.021913124504779467,-0.0582881705603324,-0.16361114674126565,0.8150796824276547,-1.194759861904253,9.803024802597406
5.82,-0.02041799478888834,-0.057905651323576605,-0.16414336223681428,0.8184423485476536,-1.2217527013572596,9.795537879585536
5.83,-0.01892284925917917,-0.057522976438882614,-0.1646712008827709,0.8218101912646155,-1.24871685117842,9.788031666744512
5.84,-0.01742777839367554,-0.057140184699534385,-0.16519467332639187,0.8251848209277082,-1.2756502306792812,9.780507964871894
5.8500000000000005,-0.01593287263469736,-0.05675731444894505,-0.16571379055966617,0.8285678408661101,-1.3025507512774623,9.772968579208214
5.86,-0.01443822238375898,-0.05637440357743599,-0.16622856391340002,0.8319608469859272,-1.3294163164693198,9.765415318985704
5.87,-0.012943917996468402,-0.055991489519150776,-0.16673900505129902,0.8353654273686929,-1.3562448218054441,9.757849996974462
5.88,-0.011450049777434223,-0.05560860924910513,-0.16724512596404714,0.8387831618715426,-1.3830341548690397,9.750274429025993
5.89,-0.009956707975175703,-0.05522579928037057,-0.1677469389633865,0.8422156217291596,-1.40978219525734,9.742690433614369
5.9,-0.00846398277704009,-0.05484309566139196,-0.16824445667619775,0.8456643691575906,-1.4364868145661411,9.735099831374992
5.91,-0.006971964304124455,-0.05446053397343814,-0.16873769203858469,0.8491309569600031,-1.4631458763775582,9.727504444641065
5.92,-0.005480742606202703,-0.05407814932818454,-0.16922665828996303,0.8526169281345011,-1.489757236251143,9.719906096977892
5.93,-0.003990407656659187,-0.05369597636542732,-0.16971136896715672,0.8561238154840651,-1.5163187417184116,9.712306612715077
5.94,-0.002501049347429403,-0.053314049250928086,-0.17019183789850117,0.8596531412287318,-1.5428282322809341,9.70470781647669
5.95,-0.0010127574839462125,-0.05293240167438836,-0.17066807919795723,0.8632064166200817,-1.5692835394120543,9.697111532709588
5.96,0.00047437821990781344,-0.052551066847552716,-0.17114010725923606,0.8667851415581342,-1.5956824865623696,9.689519585209867
5.97,0.00196026814684065,-0.0521700775024399,-0.17160793674993718,0.870390804210738,-1.622022889169052,9.68193379664764
5.98,0.0034448227811830715,-0.05178946588970076,-0.1720715826057,0.8740248806355482,-1.6483025546691068,9.674355988090207
5.99,0.00492795271391454,-0.05140926377710232,-0.17253106002437127,0.8776888344046643,-1.6745192825166755,9.66678797852372
6.0,0.006409568647682272,-0.05102950244813637,-0.1729863844601902,0.881384116232034,-1.7006708642044894,9.659231584373472
6.01,0.007889581401810893,-0.05065021270075212,-0.17343757161799095,0.8851121636036894,-1.7267550832895417,9.65168861902284
6.0200000000000005,0.009367901917306075,-0.05027142484621146,-0.17388463744742602,0.8888744004109193,-1.7527697154230903,9.644160892331167
6.03,0.010844441261847129,-0.04989316870806605,-0.1743275981372087,0.8926722365864501,-1.7787125283850813,9.63665021015047
6.04,0.012319110634774783,-0.04951547362125453,-0.1747664701093799,0.8965070677437206,-1.8045812821230898,9.629158373841278
6.05,0.013791821372067487,-0.049138368431319204,-0.1752012700135967,0.9003802748193378,-1.830373728795844,9.621687179787589
6.0600000000000005,0.015262484951311108,-0.04876188149374091,-0.17563201472144666,0.9042932237187891,-1.8560876128214523,9.614238418911167
6.07,0.0167310129966566,-0.04838604067339052,-0.17605872132078626,0.9082472649655033,-1.8817206709303886,9.606813876185196
6.08,0.018197317283772066,-0.04801087334409638,-0.176481407110108,0.9122437333533217,-1.907270632223344,9.59941533014749
6.09,0.019661309744782474,-0.047636406388325545,-0.17690008959293363,0.9162839476024883,-1.932735218234024,9.59204455241339
6.1000000000000005,0.021122902473201807,-0.047262666196978734,-0.17731478647223747,0.9203692100191958,-1.9581121429969448,9.584703307188358
6.11,0.022582007728852493,-0.04688967866929672,-0.17772551564489822,0.9245008061588147,-1.9833991131203477,9.577393350780579
6.12,0.02403853794277816,-0.04651746921287677,-0.17813229519618276,0.9286800044928359,-2.008593827864284,9.570116431113538
6.13,0.025492405722143268,-0.046146062743798594,-0.17853514339426088,0.9329080560796364,-2.0336939792239543,9.562874287238772
6.140000000000001,0.026943523855124364,-0.04577548368685788,-0.17893407868475272,0.9371861942391211,-2.0586972520183635,9.555668648848975
6.15,0.028391805315787617,-0.04540575597590589,-0.17932911968530948,0.9415156342313282,-2.0836013239843676,9.548501235791456
6.16,0.02983716326895886,-0.045036903054293795,-0.1797202851802281,0.9458975729390641,-2.108403865876212,9.541373757582264
6.17,0.03127951107507973,-0.04466894787542078,-0.18010759411510124,0.9503331885546387,-2.133102541570567,9.534287912920961
6.18,0.03271876229505421,-0.04430191290338378,-0.18049106559150296,0.9548236402707766,-2.1576950081771735,9.527245389206271
6.19,0.0341548306950817,-0.04393582011372778,-0.18087071886170988,0.9593700679757725,-2.182178916155145,9.52024786205273
6.2,0.035587630251479256,-0.043570690994295114,-0.18124657332346017,0.9639735919529513,-2.206551909434986,9.51329699480847
6.21,0.03701707515549229,-0.04320654654617216,-0.18161864851475004,0.9686353125845151,-2.2308116255463855,9.506394438074262
6.22,0.038443079818092266,-0.042843407284732175,-0.18198696410866824,0.9733563100598274,-2.2549556957518364,9.499541829224023
6.23,0.039865558874761294,-0.042481293240772364,-0.18235153990826922,0.978137644088214,-2.2789817451861394,9.492740791926868
6.24,0.04128442719026446,-0.04212022396174398,-0.18271239584148583,0.982980353616334,-2.3028873930018374,9.485992935670916
6.25,0.0426995998634101,-0.04176021851307375,-0.18306955195608188,0.9878854565501856,-2.326670252520632,9.47929985528893
6.26,0.04411099223179606,-0.0414012954795751,-0.18342302841464495,0.9928539494818137,-2.350327931390817,9.47266313048601
6.2700000000000005,0.045518519876541826,-0.04104347296694742,-0.1837728454896195,0.9978868074207758,-2.373858031750794,9.466084325369472
6.28,0.04692209862700788,-0.04068676860336236,-0.18411902355838147,1.0029849835304245,-2.3972581503986667,9.459564987981013
6.29,0.0483216445655016,-0.04033119954113466,-0.1844615830983545,1.0081494088690657,-2.420525878968013,9.453106649831417
6.3,0.049717074031968886,-0.03997678245847677,-0.18480054468216783,1.0133809921360495,-2.443658804109799,9.446710825437869
6.3100000000000005,0.05110830362867015,-0.039623533561335175,-0.18513592897285597,1.0186806194228475,-2.4666545076805253,9.440379011864053
6.32,0.05249525022484318,-0.03927146858530697,-0.18546775671910126,1.0240491539691792,-2.4895105669365916,9.434112688263255
6.33,0.0538778309613514,-0.03892060279763481,-0.18579604875051922,1.0294874359242254,-2.5122245547349427,9.427913315424544
6.34,0.0552559632553168,-0.03857095099927937,-0.18612082597298668,1.0349962821129894,-2.5347940397399724,9.421782335322199
6.3500000000000005,0.056629564804736965,-0.03822252752706629,-0.18644210936401256,1.0405764858078648,-2.5572165866367547,9.415721170668652
6.36,0.0579985535930873,-0.03787534625590771,-0.18675991996815283,1.046228816505437,-2.579489756350571,9.409731224470946
6.37,0.059362847893908444,-0.03752942060109512,-0.1870742788924683,1.0519540197085882,-2.6016111062727902,9.403813879590972
6.38,0.06072236627537697,-0.03718476352066315,-0.18738520730202682,1.0577528167139398,-2.623578190493079,9.39797049830966
6.390000000000001,0.06207702760485975,-0.03684138751782174,-0.18769272641544762,1.0636259044046832,-2.6453885600379596,9.392202421895155
6.4,0.06342675105345219,-0.03649930464345562,-0.18799685750049153,1.069573955048835,-2.6670397631157297,9.386510970175365
6.41,0.0647714561005011,-0.036158526498689225,-0.18829762186969312,1.0755976161029723,-2.68852934536773,9.380897441114803
6.42,0.06611106253810986,-0.035819064237515484,-0.1885950408760386,1.0816975100214776,-2.7098548501259625,9.37536311039604
6.43,0.06744549047562604,-0.03548092856948652,-0.1888891359086855,1.0878742340713345,-2.7310138186770505,9.369909231005881
6.44,0.06877466034411334,-0.035144129762465115,-0.18917992838872838,1.094128360152524,-2.7520037905325476,9.36453703282646
6.45,0.07009849290080439,-0.03480867764543511,-0.18946743976500677,1.100460434624041,-2.77282230370555,9.359247722231359
6.46,0.07141690923353869,-0.03447458161136868,-0.18975169150995821,1.106870978135578,-2.7934668949936303,9.354042481686939
6.47,0.07272983076517923,-0.0341418506201495,-0.1900327051155138,1.1133604854649162,-2.813935100268057,9.348922469359112
6.48,0.07403717925801381,-0.03381049320154968,-0.19031050208903857,1.119929425361038,-2.834224454769271,9.343888818725594
6.49,0.07533887681813609,-0.033480517458259036,-0.19058510394931474,1.1265782403930058,-2.8543324934086116,9.338942638193902
6.5,0.07663484589981079,-0.03315193106896538,-0.19085653222256885,1.1333073468046448,-2.8742567510762425,9.334085010725229
6.51,0.07792500930981691,-0.032824741291482946,-0.19112480843854157,1.140117134375037,-2.8939947629552636,9.329316993464307
6.5200000000000005,0.07920929021177445,-0.032498954965929285,-0.1913899541266017,1.1470079662848716,-2.9135440648419513,9.324639617375517
6.53,0.08048761213045036,-0.032174578517947264,-0.1916519908119018,1.1539801789886732,-2.93290219347211,9.320053886885338
6.54,0.08175989895604732,-0.031851617961971695,-0.19191094001157824,1.1610340820929301,-2.9520666868534686,9.315560779531271
6.55,0.08302607494846995,-0.031530078904538024,-0.19216682323099243,1.168169958240149,-2.9710350846041056,9.311161245617503
6.5600000000000005,0.08428606474157359,-0.03120996654763262,-0.19241966196001536,1.1753880629988545,-2.9898049282968038,9.306856207877319
6.57,0.08553979334739133,-0.03089128569208196,-0.1926694776693537,1.1826886247595567,-3.008373761809337,9.302646561142593
6.58,0.08678718616034292,-0.03057404074098015,-0.1929162918069186,1.1900718446367122,-3.0267391316805923,9.298533172020349
6.59,0.08802816896142057,-0.030258235703152052,-0.19316012579423547,1.1975378963766796,-3.0448985874724808,9.294516878576646
6.6000000000000005,0.08926266792235593,-0.029943874196651697,-0.19340100102289542,1.2050869262717039,-3.0628496821375695,9.290598490027925
6.61,0.09049060960976485,-0.029630959452293597,-0.19363893885104785,1.2127190530799337,-3.080589972392366,9.286778786439939
6.62,0.09171192098927299,-0.029319494317215616,-0.1938739605999345,1.2204343679514902,-3.0981170190961884,9.283058518434443
6.63,0.0929265294296172,-0.02900948125847206,-0.1941060875504629,1.2282329343605973,-3.1154283876355455,9.27943840690379
6.640000000000001,0.0941343627067276,-0.028700922366655002,-0.19433534093982135,1.2361147880437895,-3.1325216483139404,9.275919142733581
6.65,0.09533534900778642,-0.028393819359543222,-0.19456174195813278,1.24407993694419,-3.149394376747013,9.27250138653348
6.66,0.0965294169352664,-0.028088173585776255,-0.19478531174514965,1.2521283611619,-3.1660441542629663,9.26918576837642
6.67,0.09771649551094481,-0.027783986028552525,-0.19500607138698675,1.2602600129104673,-3.182468568308142,9.265972887546232
6.68,0.09889651417989659,-0.02748125730935031,-0.19522404191289405,1.2684748164794692,-3.198665212857688,9.262863312293927
6.69,0.1000694028144642,-0.027179987691669828,-0.19543924429206774,1.2767726682031966,-3.2146316888312074,9.25985757960274
6.7,0.10123509171820454,-0.026880177084794954,-0.19565169943050012,1.285153436435456,-3.23036560451328,9.256956194962049
6.71,0.10239351162981279,-0.026581825047572935,-0.1958614281678668,1.2936169615304784,-3.24586457597879,9.25415963215032
6.72,0.10354459372702286,-0.026284930792211836,-0.1960684512744526,1.3021630558299384,-3.2611262275229063,9.251468333027214
6.73,0.10468826963048432,-0.025989493188092606,-0.19627278944811363,1.310791503656087,-3.2761481920956417,9.248882707335014
6.74,0.10582447140761522,-0.025695510765595758,-0.19647446331127738,1.3195020613109962,-3.2909281117408486,9.24640313250939
6.75,0.10695313157643137,-0.0254029817199403,-0.19667349340797854,1.3282944570819013,-3.305463638039578,9.244029953499759
6.76,0.10807418310935092,-0.025111903915034872,-0.1968699002009322,1.3371683912526444,-3.3197524325576344,9.241763482599284
6.7700000000000005,0.10918755943697478,-0.0248222748873383,-0.19706370406864174,1.3461235361212136,-3.3337921672972355,9.239603999284622
6.78,0.11029319445184216,-0.024534091849729128,-0.19725492530254327,1.3551595360233653,-3.347580525152628,9.237551750065604
6.79,0.11139102251216126,-0.024247351695382363,-0.19744358410418472,1.3642760073623228,-3.361115200369575,9.235606948344877
6.8,0.11248097844551505,-0.02396205100165312,-0.19762970058244006,1.3734725386445392,-3.374393899008518,9.233769774287666
6.8100000000000005,0.1135629975525413,-0.023678186033964446,-0.1978132947507579,1.3827486905215154,-3.3874143394113307,9.232040374701741
6.82,0.11463701561058742,-0.023395752749699315,-0.1979943865244442,1.3921039958376604,-3.4001742526714938,9.23041886292773
6.83,0.11570296887733944,-0.023114746802094722,-0.19817299571797878,1.40153795968418,-3.4126713831076,9.228905318739814
6.84,0.11676079409442493,-0.022835163544137643,-0.1983491420423657,1.4110500594589708,-3.424903488739957,9.227499788256923
6.8500000000000005,0.11781042849098972,-0.0225569980324605,-0.19852284510251567,1.4206397449325179,-3.4368683417702477,9.226202283864595
6.86,0.1188518097872485,-0.022280245031236046,-0.19869412439466244,1.4303064383197635,-3.4485637290639968,9.225012784147456
6.87,0.11988487619800839,-0.02200489901606955,-0.19886299930381074,1.4400495343579383,-3.4599874526357794,9.223931233832511
6.88,0.1209095664361658,-0.021730954177888423,-0.19902948910121646,1.4498684003903288,-3.4711373301369575,9.222957543743293
6.890000000000001,0.12192581971617661,-0.021458404426826727,-0.19919361294189897,1.45976237645596,-3.4820111953458093,9.222091590764933
6.9,0.12293357575749869,-0.021187243396104727,-0.19935538986218393,1.4697307753851774,-3.492606898659881,9.221333217820264
6.91,0.12393277478800681,-0.020917464445901278,-0.19951483877727813,1.4797728829010977,-3.502922307590431,9.220682233856966
6.92,0.1249233575473807,-0.0206490606672197,-0.19967197847887458,1.4898879577268977,-3.512955307258743,9.220138413845875
6.93,0.12590526529046414,-0.020382024885744143,-0.19982682763278772,1.5000752316989345,-3.5227038008941984,9.219701498790515
6.94,0.1268784397905969,-0.020116349665686574,-0.1999794047766194,1.5103339098856523,-3.532165710333909,9.219371195747858
6.95,0.12784282334291786,-0.019852027313623864,-0.20012972831745407,1.5206631707122498,-3.5413389765237246,9.219147177860423
6.96,0.12879835876763976,-0.019589049882322684,-0.20027781652958382,1.5310621660910881,-3.5502215600204963,9.219029084399734
6.97,0.12974498941329543,-0.019327409174552584,-0.20042368755226236,1.541530021557799,-3.558811441495343,9.219016520821182
6.98,0.13068265915995475,-0.019067096746885143,-0.2005673593874879,1.5520658364130728,-3.5671066222378203,9.21910905883036
6.99,0.13161131242241292,-0.018808103913479972,-0.200708849897815,1.5626686838700707,-3.575105124660735,9.219306236460858
7.0,0.13253089415334907,-0.018550421749854946,-0.20084817680419428,1.573337611207461,-3.5828049928055052,9.21960755816358
7.01,0.13344134984645567,-0.018294041096640956,-0.20098535768384043,1.5840716399280104,-3.5902042928478117,9.22001249490763
7.0200000000000005,0.13434262553953794,-0.01803895256331979,-0.20112040996812794,1.5948697659227271,-3.5973011136033883,9.220520484292727
7.03,0.13523466781758378,-0.017785146531945364,-0.2012533509405145,1.6057309596404852,-3.60409356703377,9.221130930673247
7.04,0.136117423815803,-0.017532613160845985,-0.2013841977344916,1.6166541662631253,-3.610579788751798,9.221843205293837
7.05,0.13699084122263674,-0.01728134238830845,-0.20151296733156215,1.6276383058859603,-3.616757938526689,9.222656646436613
7.0600000000000005,0.1378548682827364,-0.017031323936241897,-0.20163967655924497,1.6386822737036817,-3.6226262007884884,9.223570559580033
7.07,0.13870945379991156,-0.016782547313822428,-0.20176434208910593,1.6497849402015916,-3.6281827851317123,9.224584217569323
7.08,0.13955454714004714,-0.0165350018211161,-0.20188698043481512,1.6609451513521376,-3.6334259268179845,9.225696860798518
7.09,0.14039009823399,-0.016288676552680754,-0.20200760795023082,1.6721617288167097,-3.638353887277468,9.226907697404101
7.1000000000000005,0.14121605758040326,-0.01604356040114544,-0.20212624082750874,1.6834334701526457,-3.642964954608916,9.228215903470234
7.11,0.1420323762485904,-0.015799642060767994,-0.2022428950952376,1.6947591490254006,-3.6472574440781074,9.229620623245507
7.12,0.14283900588128645,-0.015556910030968568,-0.2023575866165999,1.706137515425845,-3.651229698614523,9.231120969371231
7.13,0.14363589869741886,-0.015315352619839972,-0.20247033108755813,1.7175672958926336,-3.6548800893060185,9.232716023121247
7.140000000000001,0.1444230074948348,-0.015074957947633336,-0.20258114403506639,1.729047193739614,-3.6582070158913265,9.234404834653182
7.15,0.14520028565299753,-0.014835713950219907,-0.20269004081530706,1.7405758892881926,-3.661208907250162,9.236186423271112
7.16,0.1459676871356498,-0.014597608382526925,-0.2027970366119521,1.7521520401046629,-3.66388422189078,9.238059777699643
7.17,0.1467251664934447,-0.014360628821948492,-0.20290214643444937,1.7637742812423833,-3.66623144843472,9.240023856369266
7.18,0.1474726788665442,-0.014124762671729837,-0.2030053851163336,1.7754412254888179,-3.6682491060986084,9.242077587713027
7.19,0.14821017998718472,-0.013889997164326678,-0.20310676731356164,1.7871514636173256,-3.669935745172748,9.244219870474364
7.2,0.1489376261822088,-0.013656319364736148,-0.20320630750287227,1.7989035646436942,-3.6712899474963785,9.24644957402612
7.21,0.14965497437556485,-0.013423716173802388,-0.20330401998017003,1.8106960760873503,-3.6723103269293365,9.248765538700608
7.22,0.15036218209077273,-0.013192174331493646,-0.2033999188589335,1.8225275242371772,-3.67299552981995,9.251166576130672
7.23,0.15105920745335621,-0.012961680420153134,-0.20349401806864748,1.8343964144219065,-3.6733442354689654,9.253651469601676
7.24,0.1517460091932404,-0.012732220867720925,-0.203586331353259,1.8463012312850136,-3.6733551565893348,9.256218974414288
7.25,0.15242254664711755,-0.01250378195092891,-0.20367687226965736,1.8582404390640728,-3.673027039761603,9.258867818258043
7.26,0.15308877976077656,-0.01227634979846677,-0.20376565418617787,1.8702124818745087,-3.672358665884773,9.261596701595503
7.2700000000000005,0.15374466909140003,-0.012049910394120823,-0.20385269028112943,1.8822157839976803,-3.6713488506223917,9.264404298056986
7.28,0.15439017580982525,-0.011824449579882997,-0.20393799354134554,1.8942487501732463,-3.669996444843724,9.267289254845705
7.29,0.15502526170277223,-0.011599953059032726,-0.20402157676075916,1.9063097658957644,-3.668300335059765,9.270250193153238
7.3,0.155649889175036,-0.011376406399188875,-0.20410345253900078,1.9183971977154406,-3.6662594438539355,9.273285708585206
7.3100000000000005,0.15626402125164476,-0.011153795035334545,-0.2041836332800206,1.9305093935429798,-3.6638727303072405,9.276394371597007
7.32,0.156867621579982,-0.010932104272811587,-0.20426213119073316,1.9426446829584858,-3.661139190417762,9.279574727939549
7.33,0.15746065443187474,-0.010711319290287683,-0.20433895827968676,1.9548013775243365,-3.6580578575142106,9.282825299114762
7.34,0.1580430847056457,-0.0104914251426937,-0.2044141263557548,1.966977771101971,-3.654627802663425,9.286144582840821
7.3500000000000005,0.15861487792813045,-0.010272406764133723,-0.20448764702685177,1.9791721401725444,-3.6508481350715956,9.289531053526943
7.36,0.15917600025665793,-0.010054248970764842,-0.20455953169867183,1.9913827441613539,-3.6467180024790595,9.292983162757519
7.37,0.15972641848099717,-0.009836936463650015,-0.20462979157345132,2.003607825766011,-3.642236591548446,9.296499339785576
7.38,0.16026610002526614,-0.009620453831581242,-0.20469843764875376,2.015845611288265,-3.6374031282460306,9.300077992035263
7.390000000000001,0.16079501294980628,-0.00940478555387583,-0.20476548071627934,2.0280943109694287,-3.6322168782161133,9.30371750561335
7.4,0.16131312595301928,-0.00918991600314311,-0.20483093136069705,2.040352119329328,-3.6266771471482393,9.30741624582944
7.41,0.16182040837316916,-0.00897582944802466,-0.20489479995850018,2.0526172155087297,-3.6207832811370944,9.311172557724818
7.42,0.1623168301901469,-0.008762510055905469,-0.20495709667688564,2.0648877636151535,-3.6145346670349094,9.314984766609731
7.43,0.162802362027199,-0.008549941895599242,-0.2050178314726563,2.07716191307203,-3.6079307327961923,9.318851178608904
7.44,0.1632769751526193,-0.008338108940004547,-0.20507701409114718,2.089437798971109,-3.600970947814671,9.322770081215172
7.45,0.16374064148140383,-0.008126995068736084,-0.20513465406517453,2.1017135424280684,-3.5936548232522196,9.326739743850958
7.46,0.1641933335768693,-0.007916584070727272,-0.20519076071400896,2.1139872509412565,-3.5859819123596504,9.330758418437458
7.47,0.16463502465223423,-0.007706859646808558,-0.20524534314237197,2.126257018753485,-3.577951810789217,9.334824339971387
7.48,0.16506568857216272,-0.0074978054122575265,-0.20529841023945583,2.1385209272168053,-3.569564156898669,9.338935727108916
7.49,0.16548529985427154,-0.007289404899325726,-0.20534997067796715,2.150777045160214,-3.560818632046709,9.343090782756855
7.5,0.16589383367059946,-0.007081641559737794,-0.20540003291319434,2.1630234292601997,-3.551714960879698,9.347287694670623
7.51,0.16629126584903953,-0.006874498767168115,-0.2054486051820988,2.175258124414072,-3.5422529116094785,9.351524636058969
7.5200000000000005,0.1666775728747334,-0.006667959819690756,-0.20549569550242922,2.1874791641159814,-3.5324322962821837,9.355799766195137
7.53,0.167052731891428,-0.006462007942207517,-0.20554131167186057,2.19968457083559,-3.5222529710378874,9.360111231034333
7.54,0.16741672070279492,-0.006256626288850375,-0.20558546126715624,2.2118723563993,-3.511714836360949,9.364457163837189
7.55,0.1677695177737118,-0.006051797945362885,-0.20562815164335452,2.224040522373963,-3.5008178373209407,9.36883568579907
7.5600000000000005,0.16811110223150513,-0.005847505931456862,-0.20566938993297887,2.2361870604530165,-3.4895619638040487,9.373244906684953
7.57,0.16844145386715573,-0.005643733203149228,-0.205709183045272,2.2483099528449477,-3.4779472507347995,9.377682925469676
7.58,0.16876055313646612,-0.005440462655074944,-0.20574753766545467,2.260407172664057,-3.465973778288001,9.382147830983337
7.59,0.16906838116118938,-0.005237677122781314,-0.2057844602540078,2.2724766843233852,-3.4536416720907885,9.386637702561531
7.6000000000000005,0.16936491973011947,-0.00503535938499945,-0.20581995704597925,2.2845164439297805,-3.4409511034146796,9.391150610700276
7.61,0.16965015130014383,-0.004833492165898163,-0.20585403405031477,2.296524399681008,-3.427902289357525,9.395684617715352
7.62,0.1699240589972571,-0.004632058137316363,-0.20588669704921334,2.308498492264835,-3.4144954930152216,9.400237778405756
7.63,0.17018662661753656,-0.004431039920978862,-0.20591795159750637,2.3204366552600186,-3.4007310236431616,9.404808140721176
7.640000000000001,0.17043783862807854,-0.004230420090692039,-0.20594780302206217,2.3323368155391,-3.386609236807248,9.409393746432995
7.65,0.1706776801678966,-0.004030181174524156,-0.20597625642121387,2.3441968936729576,-3.372130534524469,9.413992631808835
7.66,0.1709061370487808,-0.003830305656966737,-0.20600331666421295,2.356014804337039,-3.357295365392858,9.418602828290187
7.67,0.1711231957561184,-0.0036307759810820153,-0.2060289883907061,2.367788456719169,-3.342104224710837,9.423222363172984
7.68,0.171328843449675,-0.003431574550632712,-0.20605327601023804,2.3795157549288963,-3.3265576545858404,9.427849260290813
7.69,0.17152306796433778,-0.00323268373219901,-0.206076183701778,2.391194598408265,-3.3106562440321325,9.432481540700495
7.7,0.1717058578108187,-0.0030340858572798987,-0.20609771541327113,2.402822882343962,-3.294400629057784,9.437117223369809
7.71,0.17187720217631985,-0.0028357632243824404,-0.20611787486121527,2.414398498080759,-3.277791492740718,9.441754325867104
7.72,0.17203709092515845,-0.0026376981010968713,-0.20613666553026186,2.4259193335361497,-3.260829565293802,9.446390865052427
7.73,0.17218551459935372,-0.0024398727261614236,-0.2061540906728418,2.4373832736161383,-3.243515624118898,9.451024857770085
7.74,0.17232246441917398,-0.0022422693115144885,-0.20617015330881677,2.448788200632071,-3.2258504938498636,9.45565432154219
7.75,0.17244793228364502,-0.0020448700443375595,-0.20618485622515476,2.4601319947184597,-3.2078350463844076,9.460277275263024
7.76,0.17256191077101882,-0.0018476570890870112,-0.20619820197563093,2.4714125342516997,-3.1894702009048395,9.464891739893952
7.7700000000000005,0.17266439313920315,-0.0016506125895185612,-0.20621019288055362,2.4826276962696117,-3.170756923887605,9.469495739158548
7.78,0.17275537332615173,-0.0014537186707020582,-0.2062208310265154,2.493775356891728,-3.1516962291016384,9.47408730023773
7.79,0.17283484595021545,-0.0012569574410301477,-0.20623011826616872,2.5048533917402573,-3.132289177595448,9.478664454464615
7.8,0.17290280631045363,-0.0010603109942187838,-0.20623805621802713,2.51585967636162,-3.1125368776729943,9.483225238018756
7.8100000000000005,0.17295925038690632,-0.0008637614113035528,-0.20624464626629174,2.526792086648511,-3.0924404848582823,9.487767692619617
7.82,0.17300417484082703,-0.000667290762629408,-0.20624988956070234,2.5376484992623833,-3.072001201848704,9.492289866218899
7.83,0.17303757701487596,-0.0004708811098374389,-0.20625378701641398,2.5484267920562966,-3.051220278457073,9.496789813691496
7.84,0.17305945493327402,-0.00027451450784659974,-0.20625633931389883,2.5591248444980264,-3.030099011542435,9.501265597524782
7.8500000000000005,0.173069807301917,-7.81730068344405e-05,-0.206257546898873,2.569740538093382,-3.0086387449295793,9.505715288505996
7.86,0.17306863350845075,0.00011816134578559513,-0.20625740998224884,2.5802717568096334,-2.986840869317338,9.510136966407421
7.87,0.17305593362230648,0.0003145065033866555,-0.206255928540112,2.5907163874989814,-2.964706822175582,9.514528720669059
7.88,0.17303170839469662,0.0005108804181528071,-0.20625310231372437,2.6010723203219905,-2.9422380876310976,9.518888651078644
7.890000000000001,0.17299595925857175,0.0007073010391011822,-0.20624893080955164,2.611337449170887,-2.919436196342195,9.523214868448528
7.9,0.17294868832853716,0.0009037863101043456,-0.2062434132993162,2.6215096720926763,-2.896302725362216,9.527505495289395
7.91,0.17288989840073063,0.0011003541679092724,-0.20623654882007553,2.631586891711977,-2.8728392979918773,9.531758666480355
7.92,0.1728195929526606,0.0012970225401549487,-0.20622833617432565,2.6415670156534943,-2.8490475836205857,9.535972529935236
7.930000000000001,0.17273777614300467,0.001493809343384629,-0.2062187739301294,2.6514479569640614,-2.824929297556677,9.5401452472648
7.94,0.17264445281136903,0.0016907324810551188,-0.20620786042127043,2.661227634534163,-2.8004862008467106,9.544274994434597
7.95,0.1725396284780079,0.0018878098415395011,-0.20619559374743202,2.670903973518878,-2.7757201000837903,9.548359962418205
7.96,0.17242330934350447,0.002085059296125332,-0.20618197177440106,2.6804749057581354,-2.7506328472050807,9.552398357845618
7.97,0.17229550228841156,0.0022824986970044012,-0.2061669921342972,2.6899383701962174,-2.7252263392784624,9.556388403646446
7.98,0.17215621487285349,0.002480145875256078,-0.20615065222582707,2.699292313300454,-2.6995025182784955,9.560328339687773
7.99,0.17200545533608855,0.0026780186388217627,-0.2061329492145634,2.7085346894789835,-2.6734633708517057,9.564216423406341
8.0,0.17184323259603196,0.0028761347704707105,-0.20611388003324935,2.7176634614975432,-2.647110928071296,9.568050930434834
8.01,0.17166955624873992,0.003074512025755094,-0.2060934413821278,2.7266766008951846,-2.6204472651813577,9.571830155221992
8.02,0.17148443656785428,0.003273168130955284,-0.20607162972929519,2.7355720883988477,-2.593474501330671,9.575552411646335
8.03,0.17128788450400798,0.0034721207810137896,-0.2060484413110811,2.7443479143367155,-2.566194799296203,9.57921603362325
8.040000000000001,0.17107991168419143,0.003671387637456048,-0.2060238721324516,2.753002079050267,-2.538610365196338,9.58281937570514
8.05,0.1708605304110801,0.003870986326299718,-0.2059979179674383,2.761532593304934,-2.5107234481940726,9.586360813674458
8.06,0.17062975366232258,0.00407093443595,-0.20597057435959173,2.769937478699333,-2.4825363401900895,9.589838745129397
8.07,0.17038759508979015,0.004271249515079819,-0.20594183662245963,2.778214768072935,-2.454051375505987,9.593251590061895
8.08,0.17013406901878692,0.004471949070496856,-0.2059116998400896,2.786362505912134,-2.4252709305577085,9.596597791427852
8.09,0.16986919044722187,0.004673050564993203,-0.20588015886755692,2.7943787487546228,-2.3961974235192782,9.599875815709286
8.1,0.16959297504474127,0.004874571415179817,-0.20584720833151604,2.802261565592002,-2.36683331397698,9.603084153468133
8.11,0.16930543915182314,0.00507652898930409,-0.20581284263077776,2.810009038270539,-2.3371811025741094,9.606221319891564
8.120000000000001,0.1690065997788322,0.005278940605048785,-0.2057770559369098,2.8176192618900204,-2.3072433306464033,9.60928585532858
8.13,0.1686964746050373,0.0054818235273140555,-0.20573984219486235,2.8250903452005787,-2.2770225798483485,9.612276325817591
8.14,0.16837508197758944,0.005685194965980255,-0.20570119512361784,2.8324204109974715,-2.246521471770369,9.615191323604895
8.15,0.16804244091046144,0.005889072073650369,-0.20566110821686484,2.8396075965137046,-2.215742667547186,9.618029467653772
8.16,0.16769857108335012,0.006093471943374252,-0.20561957474369644,2.8466500538103983,-2.184688867457397,9.620789404143931
8.17,0.1673434928405389,0.0062984116063504875,-0.20557658774933255,2.8535459501648948,-2.1533628105144453,9.6234698069613
8.18,0.1669772271897234,0.006503908029608223,-0.20553214005586662,2.860293468456449,-2.121767274049129,9.626069378177744
8.19,0.1665997958007983,0.006709978113667334,-0.20548622426303603,2.8668908075494883,-2.0899050732838096,9.628586848520666
8.2,0.1662112210046058,0.0069166386901752894,-0.20543883274901686,2.873336182674337,-2.057779060898463,9.631020977832272
8.21,0.16581152579164743,0.007123906519523089,-0.20538995767124235,2.8796278258053256,-2.0253921265887405,9.63337055551826
8.22,0.16540073381075684,0.007331798288436329,-0.20533959096724538,2.8857639860362356,-1.9927471966162242,9.635634400985854
8.23,0.16497886936773526,0.007540330607543392,-0.20528772435552475,2.8917429299529944,-1.9598472333509454,9.63781136407093
8.24,0.16454595742394945,0.007749520008920083,-0.2052343493364352,2.897562942003522,-1.9266952348064903,9.639900325454073
8.25,0.16410202359489195,0.007959382943608345,-0.20517945719310127,2.903222324864707,-1.8932942341677248,9.641900197065477
8.26,0.16364709414870407,0.00816993577911114,-0.20512303899235498,2.9087193998063836,-1.8596472993113764,9.643809922478411
8.27,0.16318119600466144,0.00838119479686195,-0.20506508558569672,2.9140525070522862,-1.8257575323196407,9.645628477291234
8.28,0.1627043567316222,0.008593176189667432,-0.20500558761028012,2.9192200061378704,-1.7916280689869617,9.647354869497649
8.290000000000001,0.16221660454643852,0.008805896059125823,-0.2049445354899205,2.924220276264947,-1.757262078320211,9.648988139845208
8.3,0.1617179683123312,0.009019370413017203,-0.20488191943612663,2.92905171665306,-1.722662762032444,9.650527362181847
8.31,0.16120847753722614,0.00923361516266787,-0.20481772944915608,2.9337127468875397,-1.6878333540303083,9.651971643790308
8.32,0.16068816237205605,0.009448646120288267,-0.20475195531909407,2.938201807264128,-1.6527771198954808,9.653320125710364
8.33,0.160157053609024,0.009664478996282158,-0.20468458662695588,2.942517359130159,-1.617497356360158,9.654571983048715
8.34,0.1596151826798313,0.00988112939652959,-0.2046156127458123,2.946657885222179,-1.581997390776862,9.655726425276384
8.35,0.1590625816538685,0.010098612819641865,-0.20454502284193884,2.950621889999967,-1.5462805805827426,9.656782696513602
8.36,0.15849928323637053,0.010316944654187622,-0.20447280587598807,2.954407899976865,-1.5103503127585451,9.657740075801975
8.370000000000001,0.15792532076653545,0.01053614017589254,-0.2043989506041857,2.9580144640463613,-1.474210003282474,9.65859787736386
8.38,0.15734072821560804,0.010756214544808969,-0.20432344557954957,2.961440153804864,-1.4378630965791468,9.659355450848942
8.39,0.15674554018492565,0.010977182802458171,-0.20424627915313212,2.96468356387059,-1.401313064963732,9.660012181567755
8.4,0.15613979190393082,0.011199059868944334,-0.2041674394752866,2.967743312198489,-1.3645634080816507,9.660567490712207
8.41,0.1555235192281464,0.011421860540038756,-0.20408691449695607,2.970618040391174,-1.3276176523438747,9.66102083556299
8.42,0.15489675863711636,0.011645599484236574,-0.20400469197098625,2.9733064140057546,-1.2904793503581065,9.661371709683738
8.43,0.15425954723231095,0.011870291239784485,-0.20392075945346166,2.9758071228565264,-1.2531520803560097,9.661619643101975
8.44,0.15361192273499635,0.012095950211678946,-0.20383510430506493,2.9781188813134527,-1.2156394456166821,9.661764202476673
8.45,0.1529539234840704,0.012322590668637307,-0.20374771369246,2.9802404285963693,-1.1779450738866268,9.661804991252499
8.46,0.15228558843386233,0.012550226740038615,-0.20365857458969866,2.982170529064849,-1.1400726167963187,9.661741649800529
8.47,0.15160695715189898,0.012778872412836675,-0.20356767377965043,2.9839079725036703,-1.102025749273695,9.661573855545582
8.48,0.1509180698166353,0.013008541528445057,-0.20347499785545645,2.9854515744038195,-1.0638081689546306,9.661301323079943
8.49,0.15021896721515138,0.01323924777959249,-0.2033805332220067,2.986800176238975,-1.0254235955907283,9.660923804263605
8.5,0.14950969074081508,0.01347100470715101,-0.2032842660974409,2.987952645737404,-0.9868757704545408,9.660441088310892
8.51,0.1487902823909107,0.013703825696935922,-0.20318618251467382,2.988907877149205,-0.9481684557424506,9.659853001863453
8.52,0.14806078476423312,0.013937723976476957,-0.20308626832294363,2.9896647915088783,-0.9093054339754039,9.6591594090497
8.53,0.14732124105864947,0.01417271261176339,-0.20298450918938468,2.9902223368930994,-0.8702905073977187,9.658360211530576
8.540000000000001,0.14657169506862608,0.01440880450396008,-0.20288089060062459,2.9905794886736956,-0.8311274973741221,9.657455348531686
8.55,0.14581219118272304,0.014646012386097064,-0.20277539786440482,2.9907352497657445,-0.7918202437852708,9.65644479686181
8.56,0.14504277438105456,0.014884348819732923,-0.20266801611122606,2.9906886508707338,-0.7523726044218779,9.655328570917778
8.57,0.14426349023271715,0.015123826191590153,-0.2025587302960179,2.990438750714741,-0.7127884543777259,9.654106722675735
8.58,0.14347438489318454,0.015364456710165404,-0.20244752519983272,2.9899846362815756,-0.6730716854417051,9.65277934166883
8.59,0.14267550510167032,0.015606252402313923,-0.20233438543156498,2.989325423040807,-0.6332262054890885,9.651346554951282
8.6,0.14186689817845718,0.015849225109807397,-0.20221929542969405,2.988460255170674,-0.5932559378722264,9.649808527048949
8.61,0.1410486120221951,0.01609338648586854,-0.2021022394640534,2.9873883057757684,-0.5531648208108872,9.648165459896388
8.620000000000001,0.14022069510716634,0.01633874799167938,-0.20198320163762384,2.9861087770994863,-0.5129568067823727,9.646417592760404
8.63,0.13938319648051922,0.016585320892866406,-0.2018621658883525,2.9846209007311675,-0.47263586191168194,9.644565202150245
8.64,0.13853616575946948,0.016833116255962358,-0.2017391159909971,2.9829239378078864,-0.43220596536179823,9.642608601714352
8.65,0.13767965312847052,0.017082144944843912,-0.20161403555899587,2.98101717921085,-0.39167110872440225,9.64054814212387
8.66,0.136813709336352,0.01733241761714762,-0.20148690804636318,2.978899945756343,-0.351035295411124,9.638384210942839
8.67,0.13593838569342767,0.017583944720664105,-0.2013577167496115,2.9765715883811863,-0.3103025400455326,9.636117232485276
8.68,0.13505373406857116,0.01783673648970973,-0.20122644480969887,2.974031488322648,-0.2694768678560351,9.63374766765907
8.69,0.1341598068862623,0.018090802941479217,-0.20109307521400394,2.971279057292783,-0.2285623140699018,9.631276013796917
8.700000000000001,0.13325665712360169,0.018346153872376675,-0.2009575907983261,2.9683137376471294,-0.1875629233085221,9.628702804474246
8.71,0.1323443383072956,0.018602798854327945,-0.2008199742489138,2.9651350025477616,-0.14648274898416513,9.626028609314325
8.72,0.13142290451060978,0.018860747231074802,-0.20068020810451961,2.9617423561206038,-0.10532585269828831,9.623254033780615
8.73,0.13049241035029405,0.019120008114449798,-0.20053827475848215,2.9581353336070055,-0.06409630364168928,9.620379718956388
8.74,0.12955291098347646,0.019380590380635138,-0.20039415646083597,2.95431350150953,-0.02279817799659134,9.617406341311867
8.75,0.12860446210452833,0.019642502666404847,-0.20024783532044965,2.9502764577318983,0.01856444165914617,9.61433461245885
8.76,0.12764711994189884,0.019905753365350498,-0.2000992933071912,2.9460238317130854,0.05998746694555579,9.61116527889301
8.77,0.12668094125492188,0.02017035062409373,-0.1999485122541224,2.941555284555489,0.10146680427161492,9.607899121724001
8.78,0.12570598333059227,0.02043630233848307,-0.199795473859722,2.936870509147181,0.14299835542373374,9.604536956393416
8.790000000000001,0.12472230398031402,0.020703616149778836,-0.19964015969013715,2.9319692302781695,0.18457801815148733,9.601079632380806
8.8,0.12372996153662016,0.020972299440825667,-0.19948255118146463,2.9268512047506636,0.22620168675041774,9.597528032897843
8.81,0.12272901484986296,0.021242359332213336,-0.1993226296420616,2.921516221483294,0.2678652526418457,9.593883074570789
8.82,0.12171952328487705,0.021513802678427715,-0.19916037625488606,2.915964101609269,0.3095646049494336,9.590145707111388
8.83,0.12070154671761418,0.021786636063992476,-0.19899577207986724,2.9101946985684233,0.35129563107243666,9.58631691297635
8.84,0.11967514553174965,0.022060865799601627,-0.19882879805630685,2.9042078981931514,0.3930542172554856,9.582397707015573
8.85,0.11864038061526189,0.022336497918245976,-0.1986594350053113,2.898003618788173,0.4348362491547395,9.578389136109218
8.86,0.11759731335698423,0.022613538171332014,-0.19848766363225415,2.891581811204129,0.4766376124003149,9.574292278793862
8.870000000000001,0.11654600564312907,0.022891992024796443,-0.1983134645292709,2.8849424589049573,0.5184541931548405,9.57010824487783
8.88,0.11548651985378622,0.023171864655216104,-0.19813681817778542,2.878085578029058,0.5602818786679802,9.565838175045918
8.89,0.11441891885939288,0.02345316094591504,-0.19795770495106776,2.87101121744419,0.6021165578269017,9.561483240453613
8.9,0.11334326601717831,0.02373588548306923,-0.19777610511682547,2.8637194587961012,0.6439541217024418,9.557044642311071
8.91,0.11225962516758181,0.024020042551811276,-0.19759199883982723,2.8562104165508626,0.685790464090938,9.55252361145695
8.92,0.11116806063064377,0.024305636132334336,-0.19740536618455912,2.848484238030898,0.7276214820516018,9.547921407922315
8.93,0.11006863720237232,0.024592669895998794,-0.19721618711791566,2.840541103444675,0.7694430764392841,9.5432393204848
8.94,0.10896142015108295,0.024881147201440655,-0.19702444151192341,2.832381225910055,0.8112511524325852,9.538478666213189
8.950000000000001,0.10784647521371284,0.025171071090684456,-0.19683010914649948,2.8240048514712823,0.8530416200571598,9.533640790002652
8.96,0.10672386859211092,0.02546244428526124,-0.19663316971224473,2.8154122591096042,0.8948103947041242,9.528727064100758
8.97,0.10559366694930103,0.02575526918233307,-0.1964336028132713,2.806603760747498,0.9365533976435207,9.52373888762454
8.98,0.10445593740572198,0.02604954785082496,-0.1962313879700658,2.797579701246504,0.9782665565326656,9.518677686068754
8.99,0.10331074753544214,0.026345282027566384,-0.1960265046223885,2.788340458398652,1.0199458059193531,9.513544910805528
9.0,0.10215816536234919,0.026642473113442443,-0.19581893213220752,2.7788864429114843,1.0615870877398148,9.5083420385757
9.01,0.1009982593563171,0.026941122169557526,-0.19560864978667042,2.7692180983866366,1.1031863518113378,9.503070570971888
9.02,0.09983109842934747,0.027241229913411068,-0.19539563680111202,2.75933590129201,1.1447395563194858,9.497732033913662
9.03,0.0986567519316882,0.02754279671508847,-0.19517987232209913,2.7492403609275113,1.186242668299839,9.492327977114943
9.040000000000001,0.09747528964792805,0.02784582259346776,-0.19496133543051275,2.738932019384345,1.227691664114183,9.48685997354384
9.05,0.09628678179306864,0.02815030721244239,-0.1947400051446687,2.7284114514979025,1.2690825299210542,9.481329618875197
9.06,0.0950912990085719,0.0284562498771642,-0.1945158604234753,2.7176792647941763,1.3104112621406603,9.475738530935987
9.07,0.09388891235838634,0.028763649530305316,-0.19428888016963025,2.7067360994297758,1.3516738679140048,9.470088349143886
9.08,0.09267969332494898,0.02907250474834147,-0.19405904323285583,2.695582628125499,1.3928663655562352,9.46438073393908
9.09,0.0914637138051667,0.029382813737859156,-0.1938263284131737,2.6842195560934807,1.4339847850041407,9.45861736620977
9.1,0.09024104610637368,0.02969457433188584,-0.19359071446421855,2.6726476209579255,1.4750251682577502,9.452799946711313
9.11,0.08901176294226763,0.030007783986247177,-0.1933521800965919,2.660867592669425,1.5159835698159776,9.44693019547948
9.120000000000001,0.0877759374288241,0.030322439775951275,-0.1931107039812559,2.6488802734128667,1.5568560571062995,9.441009851237888
9.13,0.0865336430801897,0.030638538391601064,-0.19286626475296753,2.6366864975089754,1.5976387109083625,9.435040670799966
9.14,0.08528495380455263,0.030956076135838263,-0.192618841013753,2.624287131309436,1.6383276257715984,9.429024428465535
9.15,0.08402994389999392,0.03127504891981861,-0.1923684113364238,2.6116830730856697,1.678918910426682,9.42296291541238
9.16,0.08276868805031584,0.03159545225972022,-0.1921149542681335,2.5988752529112675,1.7194086881909036,9.416857939082979
9.17,0.08150126132085177,0.03191728127328788,-0.1918584483339762,2.5858646325380565,1.7597930973673765,9.410711322566597
9.18,0.08022773915425359,0.032240530676413005,-0.1915988720406267,2.5726522052658733,1.8000682916380948,9.404524903977041
9.19,0.07894819736626023,0.032565194779752185,-0.1913362038800226,2.5592389958060204,1.8402304404507874,9.398300535826266
9.200000000000001,0.07766271214144534,0.03289126748538586,-0.19107042233308877,2.54562606013844,1.8802757293995949,9.392040084394093
9.21,0.07637136002894622,0.03321874228351694,-0.19080150587350417,2.5318144853626543,1.920200360599486,9.385745429094255
9.22,0.07507421793817157,0.033547612249214195,-0.1905294329715113,2.5178053895424273,1.9600005530545301,9.379418461837014
9.23,0.07377136313449174,0.033877870039198774,-0.19025418209776854,2.503599921544252,1.999672543019869,9.373061086388615
9.24,0.07246287323490799,0.03420950788867724,-0.18997573172724555,2.489199260869637,2.0392125843575064,9.366675217727748
9.25,0.07114882620370505,0.034542517608222745,-0.18969406034316183,2.4746046174812335,2.0786169488858466,9.360262781399316
9.26,0.06982930034808281,0.03487689058070487,-0.18940914644096873,2.4598172316228517,2.117881926723024,9.353825712865758
9.27,0.06850437431377104,0.035212617758271066,-0.18912096853237464,2.4448383736333525,2.157003826624012,9.347365956856049
9.28,0.06717412708062541,0.035549689659380664,-0.1888295051494144,2.429669343754499,2.1959789763115234,9.340885466712788
9.290000000000001,0.06583863795820444,0.03588809636589264,-0.1885347348485612,2.414311471932759,2.2348037228007356,9.33438620373744
9.3,0.06449798658133198,0.03622782752020975,-0.18823663621488418,2.398766117615124,2.273474432717782,9.32787013653408
9.31,0.06315225290563761,0.036568872322480524,-0.1879351878662479,2.3830346695389557,2.3119874926121837,9.321339240351875
9.32,0.061801517203082496,0.0369112195278595,-0.18763036845755673,2.3671185455159147,2.3503393092630502,9.314795496426404
9.33,0.06044586005746845,0.03725485744382929,-0.1873221566850432,2.3510191922100137,2.3885263099792184,9.308240891320278
9.34,0.05908536235992835,0.03759977392758452,-0.18701053129059986,2.334738084909813,2.4265449428932837,9.301677416263026
9.35,0.05772010530440108,0.037945956383480056,-0.1866954710661551,2.318276727294833,2.4643916772495897,9.295107066490733
9.36,0.05635017038308982,0.03829339176054552,-0.18637695485809316,2.3016366511961865,2.5020630036861844,9.288531840585481
9.370000000000001,0.05497563938190291,0.0386420665500664,-0.1860549615717174,2.2848194163515294,2.5395554345107962,9.281953739814913
9.38,0.05359659437588212,0.03899196678323462,-0.18572947017575783,2.2678266101543305,2.576865503970815,9.275374767472108
9.39,0.052213117724610375,0.039343078028870555,-0.18540045970692176,2.250659847397505,2.613989768517436,9.268796928215995
9.4,0.05082529206760705,0.03969538539121606,-0.18506790927448805,2.23332077001152,2.6509248070638605,9.26222222741261
9.41,0.04943320031970786,0.04004887350780284,-0.18473179806494489,2.2158110467969507,2.6876672212376973,9.255652670477271
9.42,0.0480369256664283,0.04040352654739546,-0.1843921053466701,2.1981323731515863,2.7242136356275735,9.249090262218045
9.43,0.046636551559313,0.04075932820801233,-0.18404881047465524,2.1802864707921206,2.7605606980240167,9.242537006180646
9.44,0.0452321617112704,0.04111626171502535,-0.1837018928952715,2.1622750874704786,2.796705079654645,9.235994903994985
9.450000000000001,0.043823840091891726,0.04147430981934021,-0.1833513321510778,2.144099996684851,2.832643475413729,9.229465954723619
9.46,0.042411670922759145,0.04183345479565812,-0.18299710788567292,2.1257629973854923,2.868372604086146,9.222952154212328
9.47,0.04099573867273509,0.042193678440823085,-0.1826391998485862,2.1072659136753025,2.9038892085658685,9.216455494442961
9.48,0.0395761280532409,0.04255496207225225,-0.1822775879002127,2.0886105945053215,2.939190056068931,9.209977962888855
9.49,0.038152924013522035,0.04291728652645506,-0.18191225201678757,2.069798913365136,2.9742719383410083,9.20352154187298
9.5,0.03672621173589834,0.04328063215763976,-0.18154317229540157,2.050832767968299,3.009131671859651,9.197088207929019
9.51,0.035296076631001955,0.043644978836410726,-0.181170328959057,2.031714079932803,3.0437660980312304,9.19067993116564
9.52,0.03386260433300271,0.044010305948557205,-0.18079370236176293,2.0124447944566817,3.078172083382662,9.184298674634082
9.53,0.03242588069481936,0.044376592393935044,-0.18041327299366972,1.9930268799888209,3.1123465197479816,9.177946393699335
9.540000000000001,0.030985991783320257,0.04474381658544376,-0.18002902148624245,1.9734623278950054,3.146286324449827,9.17162503541507
9.55,0.029543023874511503,0.045111956448098886,-0.17964092861747255,1.9537531521193379,3.17998844047587,9.16533653790252
9.56,0.028097063448709866,0.04548098941820337,-0.17924897531712594,1.9339013888410108,3.213449836650373,9.159082829733517
9.57,0.026648197185708856,0.045850892442617405,-0.17885314267202929,1.9139090961265852,3.2466675078007796,9.152865829317868
9.58,0.025196511959929523,0.04622164197812912,-0.17845341193139197,1.8937783535778103,3.2796384749195404,9.146687444295276
9.59,0.02374209483556128,0.04659321399092771,-0.17804976451216303,1.8735112619750534,3.312359785321191,9.140549570931936
9.6,0.022285033061691543,0.046965583956180244,-0.1776421820044238,1.8531099429164244,3.3448285127947663,9.1344540935221
