time,imu1_acc_x,imu1_acc_y,imu1_acc_z,imu1_gyro_x,imu1_gyro_y,imu1_gyro_z,imu2_acc_x,imu2_acc_y,imu2_acc_z,imu2_gyro_x,imu2_gyro_y,imu2_gyro_z
0.0,0.11891363187403131,0.04807780036062044,9.709174423071854,0.20921935215758372,0.08449959703792394,0.20421935215758372,0.12093466526283307,0.06106506086174371,9.711195456460656,0.2159590782252625,0.0912393231056027,0.2109590782252625
0.01,0.08859498520131433,0.024897047404702582,9.695489796980103,0.22074086662051115,0.09668366067937424,0.21574532229810378,0.08595796023658239,0.03321427670666231,9.692852725161124,0.22041174482886383,0.09635453888772694,0.21541620050645646
0.02,0.07606276474066327,0.019657583969594897,9.6997760411147,0.22332944408701141,0.099943890739126,0.21834727993624925,0.05946109878406654,0.013997223045405734,9.683174186832002,0.22468059696840578,0.10129504362052037,0.21969843281764362
0.03,0.04826950773493731,-0.0006865118636481989,9.688984397369886,0.2225245001115822,0.0998196308710284,0.21756466001745253,0.07017417981386566,0.03214554232652345,9.710888643687806,0.22099939715436367,0.09829452791380985,0.216039557060234
0.04,0.04420983962835266,0.002860887403040786,9.702108135032006,0.2144546805017572,0.09243945450104205,0.209526127311797,0.05707779246098345,0.026641328661935585,9.714975327385066,0.22093822334259566,0.09892299734188051,0.2160096701526355
0.05,0.037897590683759246,0.004315074793344675,9.71315966778367,0.21001867343338526,0.08870197695362843,0.20513038852268337,0.02525709745371234,0.0025712086843538463,9.700517980776784,0.21239946678887955,0.09108277030912273,0.20751118187817766
0.06,-0.0062599074486966305,-0.031915195070532226,9.686544850680383,0.21624723376769472,0.09563787977985892,0.21140821659719408,0.018833779674932764,0.004058293611993289,9.711636810882394,0.21013944836478404,0.08953009437694824,0.2053004311942834
0.07,0.0016756990425730069,-0.015890185676323148,9.712200501353385,0.2164897080465022,0.09659643576360169,0.21170897571451813,-0.011188413393042742,-0.017892282790079272,9.699334027762006,0.21678204512055163,0.09688877283765114,0.21200131278856757
0.08,-0.01140898448846425,-0.02072194970998327,9.717011629839996,0.2131845802023298,0.09401605464254635,0.20847116698920076,-0.011965763796869365,-0.010435456808519273,9.71645175283809,0.21682061066650904,0.0976520851067256,0.21210719745338
0.09,-0.0442545421863634,-0.04514977055221273,9.702235998012458,0.22234060410986287,0.10390541567049606,0.2177035610156543,-0.04284499637659571,-0.03291664850276252,9.703641606101488,0.22089257016369637,0.10245738172432958,0.2162555270694878
0.1,-0.06192444277902931,-0.05423585780508884,9.702808424983074,0.2153510069450242,0.09765767098720117,0.2107994012202077,-0.06069992431632185,-0.04220840769855965,9.704028061051412,0.22101847767228353,0.10332514171446047,0.21646687194746703
0.11,-0.08768154657476611,-0.07124185471689898,9.695464280617044,0.2141558476957139,0.09721280413977992,0.20969876236474666,-0.0883112823602932,-0.0610902476329838,9.694828611989891,0.21143273263566284,0.09448968907972885,0.2069756473046956
0.12,-0.10541750870362454,-0.08005824183705006,9.696310082820721,0.21427513762805253,0.09809075055956261,0.2099216710057842,-0.09344980531699972,-0.05733172387328103,9.70827069604797,0.22325495641723198,0.10707056934874205,0.21890148979496366
0.13,-0.10264448357495923,-0.06819604187277696,9.71783179363314,0.2133287968863051,0.09791135417253344,0.2090880620871428,-0.12128345540115709,-0.07609966205925046,9.699184466393456,0.2014152128935657,0.08599777017979404,0.19717447809440342
0.14,-0.1308206665731159,-0.08711236176938929,9.70856927809859,0.22045087405957767,0.10580858697645967,0.2163319984993413,-0.14444841726485205,-0.09002915332025395,9.694931797768712,0.215279076262129,0.10063678917901102,0.21116020070189262
0.15,-0.13993684338405865,-0.0867969424066852,9.7185297555272,0.20893310195329934,0.09507410482271925,0.20494522684370325,-0.1569299950426818,-0.09310445169150522,9.701525390033362,0.21048346429725587,0.09662446716667579,0.20649558918765978
0.16,-0.16935498301535473,-0.10661075197379112,9.708349207080856,0.21108553901978525,0.09801788885711916,0.2072378188554842,-0.1618322849562736,-0.08842864707486366,9.715859096166334,0.20946785549711838,0.0964002053344523,0.20562013533281734
0.17,-0.1792737508225406,-0.10675149933528649,9.717826863371064,0.2088641360236167,0.09659581219543983,0.20516573806175745,-0.2097746733821869,-0.126620163647971,9.687311424822818,0.21662652236134874,0.10435819853317187,0.2129281243994895
0.18,-0.20958727814383088,-0.127112403990429,9.707066435466668,0.2127165646794295,0.10125546857129365,0.20917666841165192,-0.21108302568354942,-0.11800394902193534,9.705554352145683,0.21276673943341234,0.10130564332527647,0.20922684316563475
0.19,-0.2143568677991433,-0.12175390188130955,9.722004410054934,0.20725048589515424,0.09660444058933923,0.20387828251198878,-0.21697226599971356,-0.11379405434170418,9.719370742636563,0.2065242724878456,0.09587822718203061,0.20315206910468014
0.2,-0.24565771087841057,-0.14275036247477446,9.710563333330951,0.21928136007142446,0.10945811003456665,0.2160860519190361,-0.24410083437911242,-0.13064809171417302,9.712099892701316,0.21841909455808273,0.10859584452122494,0.21522378640569437
0.21,-0.28086598269520735,-0.16747718499402375,9.69536471573888,0.21778855633692923,0.10879576711742706,0.21477935636616058,-0.26014645360965355,-0.1362430013182449,9.716061764515116,0.20649472415557446,0.09750193493607227,0.2034855241848058
0.22,-0.27849770357597703,-0.1544496594700448,9.717890171894437,0.20883258273071925,0.10067784066581412,0.20601871393838833,-0.29895283619834756,-0.16442175864841627,9.69741027975513,0.20943398260625137,0.10127924054134625,0.20662011381392045
0.23,-0.2968421930246658,-0.161956421152592,9.719847967148572,0.2132920579880749,0.1059828699205052,0.21068275285048738,-0.30160396263927874,-0.15626765303089382,9.715059042061455,0.20617227184554443,0.09886308377797473,0.2035629667079569
0.24,-0.32076293305478504,-0.17486031407263108,9.71637215499995,0.20608134140079895,0.09962513440492184,0.20368584129943618,-0.32085007341718536,-0.164530279859411,9.716255345778643,0.2174128131920189,0.11095660619614178,0.21501731309065614
0.25,-0.3340077021066639,-0.17690852517391678,9.723712443938057,0.2093290043567383,0.10373312547401324,0.2071565589960867,-0.3358445510366873,-0.16836242284068698,9.72184329468742,0.21329260654247242,0.10769672765974737,0.21112016118182084
0.26,-0.35596877542542293,-0.1874927848891626,9.722473997841249,0.21300978808882956,0.10828150407255613,0.21106965490631954,-0.3646101019512905,-0.18578623612358283,9.713797620852239,0.20222081369553507,0.09749252967926166,0.20028068051302506
0.27,-0.40069541824102645,-0.22066186050208358,9.698604943587801,0.2211843651241939,0.11733086219339377,0.21948580869221995,-0.3735095251605158,-0.18316401308022748,9.725752916815825,0.20449535800743585,0.10064185507663573,0.2027968015754619
0.28,-0.40357032011521443,-0.21179799066005187,9.716719937515021,0.20802574716432568,0.10505413076666002,0.20657803858432278,-0.3957471223863867,-0.19369959665028483,9.72450222622924,0.21146778476120964,0.108496168363544,0.21002007618120674
0.29,-0.4222108956603478,-0.21851818624234576,9.719198865520893,0.2132693650363557,0.11118665961996443,0.2120817813249092,-0.42330964133325283,-0.20937932275228607,9.718056101413108,0.2075198195410297,0.10543711412463838,0.20633223582958318
0.3,-0.45652893977485465,-0.2407338857286359,9.706127188663265,0.2017926984780153,0.10060584727216644,0.20087452194498698,-0.4473486036213154,-0.22135434835234732,9.715260276259208,0.20413478189988488,0.10294793069403603,0.20321660536685657
0.31,-0.4497394389064262,-0.22165976657882472,9.734287132745008,0.1998652834838299,0.09958114828826481,0.1992258011024835,-0.4419741534787954,-0.20373450027518114,9.742001818387177,0.20647794652904256,0.10619381133347747,0.20583846414769616
0.32,-0.48048408027304224,-0.2399372545542884,9.725034179954816,0.20160625291928383,0.10223161390214296,0.20125475568839904,-0.4646757111455123,-0.2140089287101379,9.74078847660324,0.20759681428981724,0.10822217527267636,0.20724531705893245
0.33,-0.49741640400342374,-0.2442196759421048,9.729711917601499,0.21126802269201955,0.11280957819623287,0.21121380498998524,-0.4955784595145422,-0.23230259393893093,9.731492195133796,0.21020364963139188,0.11174520513560521,0.21014943192935756
0.34,-0.5240160594918609,-0.257986513977209,9.724837782646608,0.19712036899058466,0.09958473534861034,0.19737272792146646,-0.5084375821052881,-0.23237050437837192,9.740354876540225,0.2028742576446169,0.10533862400264257,0.2031266165754987
0.35000000000000003,-0.537608178660836,-0.2585627821558987,9.733083689341425,0.20206634407309645,0.10546005542988925,0.2026345788046764,-0.5538637071099057,-0.2648231606800587,9.716762938572577,0.20790259376842768,0.11129630512522047,0.20847082850000762
0.36,-0.5671672224740854,-0.27492287078333644,9.725472183625477,0.21010124524009963,0.11443075338419142,0.21099465633388972,-0.5549969812406904,-0.2528006296146269,9.737573241234161,0.206649825568194,0.11097933371228583,0.2075432366619841
0.37,-0.5783933002453908,-0.27276686630036745,9.73630012474069,0.19898052572715463,0.10425219992972792,0.20020841446038937,-0.5662336392065009,-0.25069911356866764,9.748386518228513,0.2104722607416773,0.11574393494425059,0.21170014947491203
0.38,-0.5864743649360039,-0.2672827465825837,9.75037649086804,0.20350767212892576,0.1097277989907599,0.20507933980854112,-0.5978664500998575,-0.26881139693597195,9.738906931506778,0.19815570710046268,0.10437583396229684,0.19972737478007804
0.39,-0.6126369633798008,-0.27969713115076184,9.746471629847106,0.20468004136846776,0.11185482467463895,0.20660478863707982,-0.618913397377482,-0.2761555260859031,9.740113392232285,0.20719014376620837,0.11436492707237955,0.20911489103482042
0.4,-0.6359512278032274,-0.2890802726597921,9.74551226861114,0.1933027739525516,0.10143833453476517,0.1955899000864488,-0.6318903286605134,-0.27524745913518456,9.749486911935714,0.19585159392091503,0.10398715450312858,0.19813872005481223
0.41000000000000003,-0.6702523646327939,-0.3092675456589067,9.73366002534443,0.20093054280806782,0.11003291841450259,0.20358934500723638,-0.6681982187021369,-0.29748832887089144,9.735623340512712,0.20077461322154452,0.1098769888279793,0.20343341542071308
0.42,-0.6722552597005647,-0.2969740517337148,9.754196805251128,0.20775339006110832,0.11782853523365214,0.21079316273131263,-0.6785541303618638,-0.2935954036639392,9.747802406224274,0.20165281033212504,0.11172795550466884,0.20469258300232934
0.43,-0.7293347233960711,-0.33957486457855157,9.719744556386718,0.20118933638714034,0.11224312234589452,0.20461937041408396,-0.6728004790917139,-0.2734113518784067,9.776178452194287,0.20022071484159748,0.11127450080035166,0.2036507488685411
0.44,-0.7089931493765281,-0.30457268861110226,9.76279761193982,0.1964997091349817,0.10853792366991456,0.2003292911505783,-0.735809157769712,-0.32180836661217904,9.735876312568372,0.19610472987193295,0.10814294440686581,0.19993431188752955
0.45,-0.7521888736018502,-0.3329262178958809,9.742394332197417,0.19473158035123442,0.10775992772086124,0.19896999199202103,-0.7661503301601547,-0.33735695904845053,9.728322520054183,0.200750728960782,0.11377907633040882,0.20498914060156861
0.46,-0.7781636611719798,-0.34387762285418194,9.73928961871561,0.20063542505648632,0.11465952589345528,0.20529194221421485,-0.7537485973475975,-0.3099821247651474,9.763589140495776,0.19867969621236434,0.1127037970493333,0.20333621337009286
0.47000000000000003,-0.7956161744105185,-0.3461260182046033,9.744781447251455,0.1934702411655887,0.10849563238905119,0.19855413323003585,-0.7824294335053935,-0.3235097793631967,9.757847338120838,0.20322763783646133,0.11825302905992383,0.20831152990090848
0.48,-0.813176089345072,-0.3483015792846574,9.750236752305062,0.20286610277903305,0.11889823751367737,0.20838663187307047,-0.8199586014873874,-0.34570617390236513,9.743327960971685,0.18488917580242342,0.10092131053706771,0.19040970489646084
0.49,-0.8220617251478621,-0.3416231713171604,9.764433798708033,0.191507787768476,0.10855203527010403,0.19747420797544796,-0.8333112622543241,-0.3435470041563506,9.75305243250815,0.19656053772587767,0.11360478522750572,0.20252695793284964
0.5,-0.8528157508513129,-0.35663405593622877,9.756826475943095,0.19197221729455669,0.11003386288208339,0.19839377387801543,-0.8332127591566161,-0.3277581947088985,9.776291968360258,0.18587220015181954,0.10393384573934623,0.1922937567352783
0.51,-0.8577737332509483,-0.34567043888536275,9.775075751282058,0.19258727262659678,0.11167151762035149,0.19947320124244738,-0.8749146329099915,-0.3535919137276022,9.757791562393669,0.18705386143390398,0.10613810642765871,0.1939397900497546
0.52,-0.8939413988708561,-0.3657387317630245,9.762172408866686,0.1920444433044346,0.11215640497064615,0.19940396920554765,-0.8845618215627997,-0.3471937727143206,9.77140278778887,0.18741886528400734,0.1075308269502189,0.1947783911851204
0.53,-0.9214816680960383,-0.3770025859201732,9.757950016627463,0.19323461820258803,0.1143793297039337,0.20107695543593923,-0.9411369793845755,-0.387547145161952,9.738139479203927,0.18514694768209797,0.10629165918344365,0.19298928491544917
0.54,-0.9358286791887558,-0.37489691622704646,9.766970903322909,0.18258143555502862,0.10476384590712953,0.19091578615142915,-0.9286490883539588,-0.35866177779583924,9.773989122342373,0.18665109766113638,0.10883350801323728,0.19498544825753691
0.55,-0.9574260862154146,-0.3798661987358879,9.768787861672408,0.1881354906061755,0.11136046463992019,0.19697104376266017,-0.9594398774378846,-0.37288020959188334,9.766606435733886,0.18520741149121311,0.10843238552495783,0.1940429646476978
0.56,-0.9788630972661072,-0.3845005086219228,9.770808111200079,0.1791956202186025,0.10346793854818254,0.1885415514735455,-0.9798482974116469,-0.3765422463211402,9.769648896977756,0.18560150734248995,0.10987382567207,0.19494743859743296
0.5700000000000001,-1.00355793305165,-0.3922189784876074,9.76960984070433,0.188095746446118,0.11342010544265949,0.19796121684715054,-1.001681222548261,-0.381455661949523,9.771306042120225,0.1907034158089108,0.11602777480545226,0.20056888620994331
0.58,-1.011456382566672,-0.3829683537188913,9.785243653664272,0.18489527438917414,0.11127628615984991,0.19528942965397977,-1.0289260345458002,-0.3916087822614625,9.767586882796735,0.17735988704226716,0.1037408988129429,0.1877540423070728
0.59,-1.034273370439019,-0.3884645595139641,9.785991001962168,0.18476210823048073,0.11220430060298975,0.1956940779005498,-1.0488501291069372,-0.394269991121964,9.771220400724324,0.19188578391747868,0.11932797628998772,0.20281775358754778
0.6,-1.0507175439050704,-0.3874172875242877,9.793139599982021,0.1765585446117649,0.10506636112406546,0.18803744119919064,-1.0808607038459475,-0.4088475180525161,9.762795760868565,0.187637829515447,0.11614564602774756,0.19911672610287273
0.61,-1.0875304928978529,-0.4065692155950054,9.779944205596964,0.18917183026394369,0.11874963015912852,0.2012067483913472,-1.1110970458541494,-0.42148172545204404,9.756170024953677,0.17869733653830516,0.10827513643349,0.19073225466570867
0.62,-1.0959853746891408,-0.3971946320461418,9.795127996603842,0.1819741919299057,0.1126262501561089,0.19457420746357929,-1.110441428392241,-0.4030560049315748,9.780457255846885,0.1748994956922264,0.10555155391842962,0.1874995112259
0.63,-1.1230982588572669,-0.40631078026653766,9.791671226832905,0.17604479368118903,0.10777530089641447,0.1892189628575519,-1.1487859977927883,-0.42346366384610223,9.765761631733424,0.1793698381014473,0.11110034531667272,0.19254400727781018
0.64,-1.1367907770166645,-0.401840508056776,9.801648577496136,0.18743005155534428,0.12024311413710786,0.20118741010080538,-1.161174744332457,-0.4177498957834711,9.777035476322165,0.18432834019358493,0.1171414027753485,0.19808569873904602
0.65,-1.1645492720012214,-0.41127141641341236,9.797570009081758,0.17153751907528103,0.10543715913496014,0.1858870813196102,-1.1644667129234216,-0.4027749908599457,9.797416049232021,0.17911651178240948,0.11301615184208859,0.19346607402673865
0.66,-1.2129378105638098,-0.4411688718171152,9.7728677497322,0.17854515692311293,0.113535312324897,0.19349591490642154,-1.1867740947873022,-0.406652426986058,9.798787455395463,0.17398958911582382,0.1089797445176079,0.18894034709913243
0.67,-1.230017440336819,-0.43959526276979494,9.779477039360216,0.18209581409379957,0.11818033847813851,0.19765673666723682,-1.2219271429013696,-0.4232137848927229,9.787315730688862,0.17393312143472958,0.1100176458190685,0.18949404400816683
0.68,-1.2565542710101585,-0.4473180805374387,9.776628049546346,0.17919150248892793,0.11637416530037548,0.19537153440920138,-1.2473103850550602,-0.42984496075591233,9.785612629951368,0.16926115447424694,0.10644381728569446,0.1854411863945204
0.6900000000000001,-1.2504784633830497,-0.42226890775522774,9.806386895561074,0.17184370065605353,0.11012818717540492,0.18865176167388534,-1.2838532970688377,-0.4474768389721825,9.77274495483986,0.1638973920097651,0.10218187852911649,0.1807054530275969
0.7000000000000001,-1.291943661936172,-0.44460285054177184,9.78859620486458,0.17768450485143628,0.11707441623206111,0.19512948879407002,-1.2792064308987712,-0.4237614198086904,9.801058426796155,0.17300004828113166,0.11238995966175647,0.1904450322237654
0.71,-1.3187123980977828,-0.4520839412963279,9.785489714910263,0.18320050557376658,0.1236993588820389,0.2012912794216415,-1.320969639839683,-0.44630004414080526,9.782949462913322,0.16175613867658956,0.10225499198486188,0.17984691252446447
0.72,-1.3305538874122855,-0.4444829353877845,9.79729447704304,0.17545992984127604,0.11707115810100628,0.1942053327989899,-1.344986128463703,-0.45093744291444793,9.78257112706385,0.17174970790468247,0.1133609361644127,0.19049511086239634
0.73,-1.3436927432423897,-0.4380260243667908,9.807782143860997,0.1612908739899314,0.10401782623070581,0.18069971655161476,-1.3308790266447639,-0.4172983106839359,9.820296556938743,0.16895264022906667,0.1116795924698411,0.18836148279075005
0.74,-1.3787677602188553,-0.4533536189153392,9.796310186825965,0.17555750688584468,0.11940344819518017,0.19563856989507228,-1.3656281452393138,-0.43236406079592093,9.809142209426941,0.1682329659534933,0.11207890726282878,0.1883140289627209
0.75,-1.4144901611631475,-0.46917859525939054,9.784163650397394,0.17222061341825462,0.11718872499747862,0.19298264712262336,-1.4028440541395062,-0.4497469029359451,9.795493783618415,0.17152627333349954,0.11649438491272351,0.19228830703786828
0.76,-1.4159004288041264,-0.45054312636595406,9.806298321367997,0.16566335329770704,0.11175673252147385,0.1871150763982116,-1.3961784611515111,-0.42310022149054094,9.82569584297793,0.17719586041816035,0.12328923964192715,0.1986475835186649
0.77,-1.4325547782180543,-0.4470051538542134,9.81315425747151,0.16663311691213128,0.11385477739148872,0.1887832156074715,-1.4470351383393958,-0.45382950136563455,9.798340890048689,0.16524617205294187,0.1124678325322993,0.18739627074828208
0.78,-1.4574257076400998,-0.4515389382691558,9.811755237614106,0.16456892453398725,0.11292179618290847,0.18742605155994435,-1.4662336379507612,-0.45275604337771846,9.802605651569298,0.15570972386276002,0.10406259551168125,0.17856685088871713
0.79,-1.4810903857968534,-0.454723445867516,9.81152037557951,0.14916797971429213,0.09865490881959085,0.17274075337831288,-1.4879897629155392,-0.45409743420948545,9.804270609012312,0.16764877852743687,0.11713570763273562,0.19122155219145762
0.8,-1.515598306927327,-0.4686100030838266,9.800396466040091,0.15786821324402658,0.10849196253857497,0.18216521645515735,-1.5014134449759127,-0.446965423988213,9.81422212148606,0.15971737294699123,0.11034112224153962,0.184014376158122
0.81,-1.5441526963519334,-0.47640370153635414,9.795176580013997,0.15407196856938876,0.10583521730855937,0.179101747863704,-1.5458897060917791,-0.47074688713160096,9.793071465354968,0.16440882414087848,0.1161720728800491,0.18943860343519373
0.8200000000000001,-1.5564657563399058,-0.46781864332369094,9.806144820017687,0.15536108064309828,0.10826642468435475,0.18113214520477006,-1.5541484147483833,-0.45817357808798637,9.808085078951496,0.15922257126751577,0.11212791530877225,0.18499363582918754
0.8300000000000001,-1.5785348455868866,-0.4688541199240495,9.80730014160159,0.15677089786218157,0.11082084974774295,0.18329171854033943,-1.5656602374700734,-0.4487180822752202,9.819788612075268,0.15952007262158208,0.11357002450714346,0.18604089329973994
0.84,-1.5892554310997078,-0.458407563494578,9.819743402471785,0.15238476585926447,0.10758175490177253,0.17966377418079726,-1.5735486048773997,-0.4355057815557144,9.835054960941994,0.15842668007038488,0.11362366911289293,0.18570568839191764
0.85,-1.63434544627982,-0.4821989043624684,9.79775300540571,0.1512568557935661,0.10760322816468507,0.17930244297201925,-1.6151137055447191,-0.45583884750513454,9.816580275324617,0.14765483178680072,0.10400120415791968,0.17570041896525387
0.86,-1.646573060712496,-0.47299834021531434,9.808557129454655,0.1622496415115901,0.11974766033347234,0.19107015745231504,-1.6384371439499175,-0.45780089876667823,9.816279301594825,0.14984326995897437,0.10734128878085661,0.1786637858996993
0.87,-1.667850677301885,-0.47272033263106794,9.810239733792498,0.14976635650738623,0.1084182019469383,0.17937010880909954,-1.6657236536533055,-0.46359871362827976,9.811943670527489,0.15189600471108886,0.11054785015064093,0.18149975701280216
0.88,-1.693082391885233,-0.4762710660812763,9.807893099077159,0.14404279815362542,0.103850567519512,0.17443805110653843,-1.6761619390297249,-0.45242307114712565,9.824381056543752,0.15080488123284352,0.11061265059873011,0.18120013418575653
0.89,-1.7274080202413236,-0.4887924743229219,9.796373801409377,0.1543500937334797,0.11531580157580486,0.18554506731416065,-1.7340418447871204,-0.488565920055016,9.789298009159186,0.1411457237023024,0.10211143154462758,0.17234069728298337
0.9,-1.7369700851123802,-0.47642922679846034,9.809535726269333,0.14667048766967375,0.10879606588228187,0.1786733565328078,-1.721752514680712,-0.45441853685405365,9.824301795227615,0.15369499905504652,0.11582057726765463,0.18569786791818058
0.91,-1.7522860621254457,-0.46970097393036414,9.816857823544762,0.14725494258012287,0.11054224050546314,0.18007383504733535,-1.757356958991573,-0.46804609267176683,9.811325832411496,0.15014620333940148,0.11343350126474176,0.18296509580661396
0.92,-1.7792059166728438,-0.4744598833701086,9.81248657159068,0.1484215675323124,0.11287235206881367,0.18206456457822437,-1.7895167175366617,-0.4781123156430228,9.801705027111543,0.15688083249969295,0.12133161703619424,0.19052382954560493
0.93,-1.8028434115816014,-0.47582194703178665,9.811304670490626,0.14164063555063314,0.10725659126253856,0.17611576978631902,-1.8001754086343926,-0.46656303924315473,9.813492226431215,0.14724050906113148,0.11285646477303692,0.18171564329681736
0.9400000000000001,-1.8331437239322799,-0.48373459727112833,9.80336342615862,0.15100991713686818,0.11779264636648071,0.18632517179088798,-1.8187323346859656,-0.4627998072328225,9.817284613515618,0.14429762200365995,0.1110803512332725,0.17961287665767978
0.9500000000000001,-1.8345002584165966,-0.46259351959960826,9.824265937892271,0.14322132389826459,0.11117234688055745,0.17938463179544425,-1.8436317522966774,-0.4652691431391435,9.814634438340297,0.13867781374704183,0.1066288367293347,0.1748411216442215
0.96,-1.8347045760727332,-0.4401925807728672,9.846217170537871,0.14092657140196455,0.11004732638151304,0.17794581394009923,-1.8731407347346083,-0.47224041207081846,9.807271156152341,0.14071614961211112,0.10983690459165964,0.1777353921502458
0.97,-1.9050396595966161,-0.4878170934520387,9.797930690068853,0.14179508783736847,0.11208693118756213,0.17967809396202755,-1.8949450838129323,-0.47140173195379476,9.807505516477157,0.13954927207123977,0.10984111542143343,0.17743227819589885
0.98,-1.913265899116108,-0.4732298013252455,9.811642678690594,0.1289285909450447,0.10039279728954044,0.16768313612265476,-1.907712609977668,-0.4614232529696203,9.81666628390906,0.1431259506394143,0.11459015698391004,0.18188049581702437
0.99,-1.9310638913869964,-0.468113677648449,9.815669136512279,0.14040028303290872,0.11303804536928917,0.18003408822229722,-1.9275064997529485,-0.4583705243488528,9.818686871533183,0.13395233352137922,0.10659009585775969,0.17358613871076772
1.0,-1.9508101563908462,-0.4648476411860415,9.817630165805621,0.14008707145110816,0.11389950127671136,0.1806078020736876,-1.9476045414512273,-0.4555237194272753,9.820286116071141,0.12608969708604387,0.09990212691164709,0.1666104277086233
1.01,-1.9561705356720154,-0.4470999538887831,9.833856573512904,0.14070812829040452,0.11569625573029298,0.18212339319918117,-1.988842636543448,-0.4737211463602355,9.800624767355217,0.1407376638768257,0.11572579131671415,0.18215292878560235
1.02,-1.9877818170952273,-0.4555098449908013,9.823708247322699,0.13012451097101496,0.10628928490805574,0.17244186141860615,-1.9782431987339684,-0.43998764654023076,9.832677090086,0.1329452762684893,0.10911005020553007,0.17526262671608048
1.03,-2.0308722932337857,-0.4753080687360117,9.801953598102997,0.13237295001025462,0.10971523821728359,0.17559987861610046,-2.0180655308509516,-0.45658497082871935,9.814180487762588,0.13549702811795736,0.11283931632498632,0.1787239567238032
1.04,-2.044370779281532,-0.4654259216274047,9.809660542798456,0.1353811203699788,0.11390170964402482,0.17952506008693536,-2.0380410242169154,-0.45324697826719834,9.815400304120502,0.1342126667666045,0.11273325604065053,0.17835660648356108
1.05,-2.0569318844581574,-0.45452051316907804,9.81817123382187,0.13342513233482864,0.11312472863337643,0.17849345541533035,-2.058394428130784,-0.450200904899158,9.81610855444561,0.12322633339704121,0.102925929695589,0.1682946564775429
1.06,-2.0796854591377376,-0.4537242123312014,9.816352612709922,0.12790197529106903,0.10878120387034113,0.17390199225305056,-2.0855093804626774,-0.4538328937044486,9.809918395762871,0.13198526790940746,0.11286449648867956,0.17798528487138898
1.07,-2.0891144918446436,-0.43952254388235446,9.827718513898795,0.12860724795066106,0.11066665350590216,0.17554620654342756,-2.0883764378322676,-0.43313602411721447,9.82783609742867,0.12716951818652542,0.10922892374176653,0.17410847677929192
1.08,-2.1203855457495075,-0.447084624222218,9.817099228986805,0.13100470647348894,0.11424475328123797,0.17888979064372706,-2.1124015050855296,-0.43351874084247977,9.824452612411836,0.1327382025419701,0.11597824934971915,0.18062328671220823
1.09,-2.148936031060939,-0.45185043311059053,9.809054235088187,0.13351323392669154,0.11793430598902994,0.18235156278481368,-2.1399794170840583,-0.43737843498586326,9.81736999624902,0.11929486271522012,0.10371593477755853,0.16813319157334228
1.1,-2.1589815186560015,-0.4380381266360365,9.819364881934849,0.12162561884354416,0.10722802003430998,0.17142424563055778,-2.153075793928178,-0.4266832986179323,9.824619552552933,0.11133700170537639,0.09693940289614221,0.16113562849239
1.11,-2.174245605828012,-0.4293739023030212,9.824304526847385,0.11942570959129706,0.10620966380425828,0.17019162064639504,-2.178822059796663,-0.4285673429563041,9.819066814890592,0.11724340532957198,0.1040273595425332,0.16800931638466995
1.12,-2.2094698394721966,-0.4406019215583237,9.809128612254673,0.11794296605499086,0.10590861735397225,0.16968307978405592,-2.206970695220859,-0.4327856499835556,9.810956295213552,0.12173454741840618,0.10970019871738758,0.17347466114747123
1.1300000000000001,-2.2175348277736404,-0.4246054208214521,9.820953554697365,0.11648937001029437,0.10563678278125564,0.16921053585551413,-2.220353412739319,-0.4221725474473201,9.817453308893834,0.12697897704573763,0.1161263898166989,0.17970014289095737
1.1400000000000001,-2.2528757822848844,-0.43582225290670445,9.80534120342797,0.11051115643210781,0.10084031553717267,0.1642201538428968,-2.2388769016937724,-0.4166373530036993,9.818648230604717,0.12219601632624238,0.11252517543130724,0.17590501373703138
1.1500000000000001,-2.2498000220790066,-0.40856239052294563,9.827981336921319,0.11914947527951072,0.11066028621294853,0.17385301268493547,-2.25977414094736,-0.41341568628513803,9.817305182265123,0.1160511421270819,0.1075619530605197,0.17075467953250664
1.16,-2.285812447018173,-0.42033339889137217,9.811366190255534,0.1111108261795856,0.10380311522574963,0.16681553996249066,-2.283582644171027,-0.41304771353896064,9.812883788401818,0.11171865522718945,0.10441094427335347,0.1674233690100945
1.17,-2.295140661254886,-0.40536555859876067,9.821265332245924,0.11198150748636233,0.10585502187959155,0.1686939609593951,-2.308106247230417,-0.4133399343691582,9.807577389396698,0.11657439440386462,0.11044790879709383,0.17328684787689738
1.18,-2.3236608220389305,-0.4095377137594298,9.81179981725886,0.11441026148705975,0.10946466957355201,0.17213694387079254,-2.300767961929158,-0.38171803483755373,9.833960188363374,0.11718981920114908,0.11224422728764134,0.17491650158488187
1.19,-2.3342434824992155,-0.3957231141553863,9.820096343036234,0.10898816549897512,0.1052230569006427,0.1677354909023229,-2.3459984551078756,-0.40261536592396535,9.807598772653488,0.10693286190360057,0.10316775330526815,0.16568018730694833
1.2,-2.3853693032298424,-0.42240512618421266,9.787671539701096,0.10824555746875791,0.10566044324907826,0.16801986387189102,-2.3705219153360115,-0.4027588095826499,9.801766247755603,0.11703292364907379,0.11444780942939414,0.1768072300522069
1.21,-2.383358377381053,-0.3959065573156214,9.80820264524367,0.11698319232292884,0.11557750515480562,0.1777907405628803,-2.379692750825357,-0.3875054760242295,9.811105539957634,0.10664320125560149,0.10523751408747828,0.16745074949555297
1.22,-2.400929522451499,-0.3889489472533159,9.808968214291276,0.1079414652419869,0.10771455957763772,0.16978843800115337,-2.413331706407486,-0.39667882006545735,9.795793279930608,0.10572059980726015,0.10549369414291096,0.16756757256642663
1.23,-2.4261532526866807,-0.38960553970726464,9.801895146257195,0.10686454070315778,0.10781569294604826,0.16975704150089432,-2.437482198242697,-0.3963249752147231,9.789783468565997,0.10238277217454857,0.10333392441743905,0.16527527297228511
1.24,-2.446084851742026,-0.3849343544350744,9.79992561320987,0.108551191093661,0.11067959977250573,0.1724952432811698,-2.4456970284486634,-0.379999467681685,9.799520762878311,0.10254762894549287,0.1046760376243376,0.16649168113300164
1.25,-2.4539853518864834,-0.3681991658285604,9.809796081186608,0.10071908156250117,0.10402386750735475,0.16572062732121348,-2.4468897294984804,-0.35661856016094734,9.816089132123318,0.09729308890824914,0.10059787485310272,0.16229463466696145
1.26,-2.480313042896688,-0.36986101119579146,9.80104580180152,0.1056918007019669,0.11017200722242963,0.17175670004561902,-2.4780399369210064,-0.3631646239229096,9.80250648559874,0.09349737063143469,0.09797757715189742,0.1595622699750868
1.27,-2.4966236210307335,-0.3614783391278339,9.802116663758701,0.10168612315029234,0.10734071621585765,0.16882015293089517,-2.4901672646580155,-0.35066001356647936,9.80775079777299,0.08945606930634513,0.09511066237191045,0.15659009908694796
1.28,-2.5350432720249185,-0.37518009189379414,9.780880110327187,0.08999323222005441,0.0968211006426262,0.15820208513795678,-2.4983997999242424,-0.33423556127997317,9.81669161389577,0.10152556086023991,0.10835342928281169,0.16973441377814227
1.29,-2.5297966408717896,-0.3451936746226704,9.8031091700193,0.09971197492535593,0.10771193054396636,0.169001258543601,-2.552533127207267,-0.3636896002473362,9.779531026453482,0.09461723510349945,0.10261719072210988,0.16390651872174453
1.3,-2.555655551191923,-0.34629367408463135,9.79402973765986,0.09998707787473159,0.10915785574249144,0.1703623136379068,-2.559457920772923,-0.3459155565655353,9.789376083103724,0.09309230734698279,0.10226308521474264,0.16346754311015801
1.31,-2.576947227676937,-0.34281008054943396,9.789312352368865,0.09680995401381205,0.1071502125871271,0.16827657627159104,-2.5740994737547735,-0.3358414777518985,9.791299258010401,0.09664702564348268,0.10698728421679773,0.16811364790126168
1.32,-2.5937703188837964,-0.33484431000218995,9.788856175177344,0.10349054183728015,0.1149988631673694,0.17605389687285639,-2.586954283051644,-0.3239666170655258,9.794801867355254,0.08740439918118406,0.0989127205112733,0.1599677542167603
1.33,-2.611667237399742,-0.32794154373601225,9.787116649257166,0.09075930582566624,0.10343419575241852,0.1644246508892772,-2.621802494662161,-0.33407387827193336,9.776101624396933,0.09163053631059212,0.1043054262373444,0.16529588137420312
1.34,-2.6311319441609387,-0.32259851210479956,9.783597715981637,0.09435811852492819,0.10819800687313633,0.16913062087266828,-2.6389961455128024,-0.32651805690758695,9.774844398021067,0.09077440202046869,0.10461429036867682,0.16554690436820876
1.35,-2.642316601878819,-0.3089701473902867,9.788145161862847,0.08661339279910191,0.10161663357711374,0.16249812873722183,-2.649916946921061,-0.3126836231860819,9.77964642963966,0.09050036666761038,0.10550360744562222,0.1663851026057303
1.36,-2.668999391257913,-0.31083739946733047,9.776978802682036,0.08986024484472373,0.10602511644555222,0.16686219877961464,-2.674505521195529,-0.3125139580479622,9.770565096938071,0.0833639161432182,0.09952878774404669,0.1603658700781091
1.37,-2.6838569101438288,-0.3008796344062176,9.777420084674254,0.08153639391391511,0.09886109931884986,0.159660457407974,-2.68824616090442,-0.3014961118858027,9.772114154937984,0.08227905578782806,0.0996037611927628,0.16040311928188694
1.3800000000000001,-2.708288962105112,-0.30049942251590633,9.76806729626356,0.08507737214990042,0.10356003913466519,0.16432834298347343,-2.690213094835294,-0.27870706996751815,9.785217470353576,0.08012809095710732,0.09861075794187209,0.15937906179068032
1.3900000000000001,-2.7201302521723076,-0.2875342335516268,9.771083872625494,0.08421663995197422,0.10385532129547588,0.16459922119157352,-2.7220522448954205,-0.28579550880742427,9.768227264991555,0.07898308314018943,0.09862176448369109,0.15936566437978872
1.4000000000000001,-2.746321145694674,-0.2889271950474358,9.759527637116358,0.06795769768941141,0.08875037138512709,0.14947649676240155,-2.7367080674576436,-0.27570863699006404,9.768197274690094,0.07832372521574883,0.09911639891146451,0.15984252428873896
1.41,-2.7576787859860112,-0.27549820944533676,9.762579683897771,0.07108725486815254,0.09303182433820281,0.1537467826440999,-2.7678702779249593,-0.2821389192201608,9.751436025023509,0.07650898179767612,0.0984535512677264,0.1591685095736235
1.42,-2.778010063245266,-0.2710569225066926,9.756431409271011,0.07566201505287508,0.09875630936483272,0.15946668493175517,-2.7658224260636257,-0.2553726511485852,9.767658256222884,0.08450314983589702,0.10759744414785466,0.16830781971477712
1.43,-2.7799227520676855,-0.24821386032189025,9.768473374405225,0.08191330097591622,0.1061550750623998,0.16686742798337106,-2.8131031723845523,-0.2779512352542467,9.734323647032891,0.07039756902644716,0.09463934311293073,0.155351696033902
1.44,-2.793384751351079,-0.23693966872285196,9.768736065655078,0.07374739693573344,0.0991343318168378,0.1598551968255722,-2.809526330745904,-0.24969122295492358,9.7516167723319,0.0625132591750662,0.08790019405617056,0.14862105906490497
1.45,-2.7950024574323153,-0.21384348593366564,9.78061152163271,0.07443035031481038,0.10096005332342559,0.1616959386789434,-2.8274028226660217,-0.24290626843623128,9.747225149026342,0.07286741529202993,0.09939711830064514,0.16013300365616295
1.46,-2.8394952722940268,-0.23364745029940176,9.74937882519399,0.0722782718800202,0.09994827689009209,0.16070566326601862,-2.857153755671017,-0.2480202065232125,9.730726157894866,0.06607826576585342,0.0937482707759253,0.15450565715185186
1.47,-2.8504600480114877,-0.21995114426312737,9.751439659169321,0.06311668359017554,0.09192445124796175,0.15270979062664433,-2.8548884178588234,-0.22114504677636826,9.746009049200792,0.06043058854249439,0.0892383562002806,0.15002369557896317
1.48,-2.8797090883726355,-0.2245695955242276,9.734980304905845,0.06498719142797764,0.09493010938635339,0.15574982395793163,-2.8649608326908123,-0.20663752782337186,9.748718388061512,0.0758141634020815,0.10575708136045725,0.16657679593203548
1.49,-2.8892259871293926,-0.20948911483622973,9.738015804163094,0.060892755980026796,0.09196813913589616,0.15282862020245755,-2.890397902240136,-0.20752726015567022,9.73582591134594,0.051833178053328474,0.08290856120919783,0.14376904227575923
1.5,-2.894866782665628,-0.19056845022953436,9.744688804576723,0.06525897902579522,0.0974640697606636,0.1583716766456142,-2.8856017048949165,-0.17821902338816126,9.752928230101796,0.06258543771739192,0.09479052845226028,0.15569813533721089
1.51,-2.9264785720442377,-0.19765740062163573,9.72515094572793,0.057954869081267284,0.0912868375050315,0.1522478964678119,-2.9111620020143163,-0.17930527248007178,9.739434323014859,0.05791783144876294,0.09124979987252715,0.15221085883530755
1.52,-2.948762344783482,-0.19545964916496744,9.714700025468488,0.05948873562689602,0.09394467982490956,0.1549654829811823,-2.9281494482156383,-0.17185934759520294,9.73427232622201,0.054378984986065686,0.08883492918407922,0.14985573234035196
1.53,-2.9547078902693404,-0.176967670239244,9.720345092594664,0.05755775339664994,0.09313469968011996,0.15422150392755454,-2.937689111572733,-0.15700899388190562,9.73631601319791,0.059463410201165905,0.09504035648463592,0.1561271607320705
1.54,-2.9658502317160758,-0.16371916300048672,9.720550012957885,0.05640891343445485,0.09310381659423005,0.15426284254400985,-2.958875433884613,-0.15385132133170434,9.726469834556402,0.05683371410232462,0.09352861726209982,0.15468764321187964
1.55,-2.990736345521763,-0.16426377033354744,9.70676675016556,0.05945343560871476,0.09726317917252132,0.1585006100866944,-2.988355184492369,-0.15903575819470678,9.708085964288754,0.04723699259555261,0.08504673615935918,0.14628416707353223
1.56,-3.0002161528710305,-0.1494540700604252,9.708144374019758,0.04992635280258312,0.08884774929576784,0.15016973003056255,-2.9919508459881126,-0.13838743629558076,9.715340914094922,0.05211141275191337,0.09103280924509809,0.1523547899798928
1.57,-3.025398756468209,-0.1504018112875569,9.69357282381072,0.051654407525622045,0.09168419873546113,0.15309683469068683,-3.021091808254407,-0.1433383846885372,9.696804339369573,0.05245220850856084,0.09248199971839992,0.15389463567362563
1.58,-3.01279634397885,-0.11362181747010415,9.716539004887277,0.045319499870448324,0.08645435711408095,0.14796371318873044,-3.0344233257608986,-0.1325364865781036,9.693830081916195,0.04927608426466911,0.09041094150830173,0.15192029758295122
1.59,-3.045505662194371,-0.12221346020797627,9.69394531448953,0.05074051645300503,0.0929770408490503,0.15458914040322205,-3.0313743479303574,-0.10541330931786082,9.706988339577185,0.050816715273357904,0.09305323966940318,0.15466533922357492
1.6,-3.059581941131688,-0.11223458298548485,9.689735717631976,0.04520372470823979,0.08853844745215643,0.15025927127540986,-3.0612598219935276,-0.11128640690659918,9.686963363360546,0.04516175786840809,0.08849648061232473,0.15021730443557818
1.61,-3.0536083856182343,-0.08227099240500463,9.70532625548686,0.04791405518635154,0.092343437829599,0.15417892311585868,-3.051645050778626,-0.07772367742769133,9.70618909961757,0.04848388779277568,0.09291327043602313,0.15474875572228283
1.62,-3.0588720018384183,-0.06361228439070199,9.709429218791682,0.04057641226798274,0.08609684700104246,0.1480528863301616,-3.0824071157142217,-0.08460478571043842,9.684787766992729,0.05330975525578041,0.09883018998884013,0.16078622931795927
1.6300000000000001,-3.083914974745377,-0.06480322126618572,9.693501770377221,0.029065254925704893,0.07567306486502078,0.13775550519111626,-3.0921904660676636,-0.07057675223553352,9.684114267123823,0.045308251866285836,0.09191606180560172,0.15399850213169722
1.6400000000000001,-3.1110778843392337,-0.06818694770726301,9.675202728814861,0.027911467187275156,0.07560290666617123,0.1378175483128398,-3.102162651130048,-0.05680968499563128,9.683000452381426,0.03528834953619818,0.08297978901509424,0.14519443066176282
1.6500000000000001,-3.133059552893774,-0.06646483765168623,9.66183272110152,0.02961811131980549,0.07838936618343884,0.14074196184596266,-3.1068657610763117,-0.03784822003955948,9.686903684919194,0.03242186361416578,0.08119311847779914,0.14354571414032297
1.6600000000000001,-3.1281638236861182,-0.03794327272046579,9.675087403827574,0.044100791617379426,0.0939479795217866,0.15644423327643542,-3.125593603621166,-0.032988697820913446,9.676529659914365,0.042807177522650786,0.09265436542705796,0.15515061918170678
1.67,-3.14175091248879,-0.027984993410085184,9.669606111568719,0.03323556113452702,0.08415473184982057,0.14680029817035725,-3.1261519023316033,-0.01003936121165925,9.684072207137994,0.03686482770386049,0.08778399841915403,0.1504295647396907
1.68,-3.1439123477537154,-0.006684038985156793,9.675296916572027,0.03816886044684881,0.09015599616462144,0.152956478946115,-3.1533572761464437,-0.013819334731261543,9.664714311304294,0.0366686584533466,0.08865579417111924,0.1514562769526128
1.69,-3.1788793145976673,-0.018274091180937018,9.647928284627142,0.033387253089137064,0.08643826873412888,0.1493992203241797,-3.1739540164519044,-0.011075401340194075,9.651711334850543,0.03468842405084233,0.08773943969583416,0.15070039128588497
1.7,-3.181607571649997,0.002286609223441266,9.652544158061634,0.034198970668176426,0.08830971421426156,0.15143663445174094,-3.1829492968498188,0.0031827880655227033,9.650055808010784,0.029755745426729097,0.08386648897281423,0.1469934092102936
1.71,-3.194448969022731,0.01264374470106363,9.64679243760075,0.03209686245459801,0.08726311524514516,0.15056145050655134,-3.1889237402774464,0.020372147799913514,9.651166861524723,0.02862436300331736,0.08379061579386451,0.14708895105527067
1.72,-3.2160965906759955,0.01410177886968556,9.631979839818543,0.020026229826865128,0.07624370689952646,0.13971884915305763,-3.182470847033973,0.049896729617706075,9.664450798426616,0.02164581550460833,0.07786329257726966,0.14133843483080083
1.73,-3.2188510218837827,0.03435768927563542,9.635805629475694,0.03157570246832798,0.08884005288430943,0.1524973387517539,-3.2156022020807318,0.039742515663081866,9.637895886547508,0.019793052843287102,0.07705740325926856,0.14071468912671303
1.74,-3.2258054184887652,0.050315898380506055,9.635176550055297,0.015440602097038802,0.07374740927490485,0.13759211910144667,-3.233073412690414,0.04515148106134028,9.626746420655483,0.02340501115515652,0.08171181833302256,0.14555652815956438
1.75,-3.217081842130517,0.08185193856637098,9.64997048831245,0.019002338189634586,0.07834712024369835,0.14238447717573682,-3.2471217508646366,0.05388395173417272,9.618765079814787,0.02641811118302659,0.08576289323709035,0.14980025016912882
1.76,-3.2464787519508365,0.07516496065586249,9.62638898233415,0.014592082517822414,0.07497029260117234,0.1392054616722522,-3.239537401449107,0.08414735650935538,9.632161679034756,0.02509986682390182,0.08547807690725175,0.1497132459783316
1.77,-3.252286483992272,0.09196225473115321,9.626141741893404,0.018535894656882813,0.07994292130909517,0.14438100853404393,-3.259387412660858,0.08687227681052037,9.617869218494103,0.021418304107956417,0.08282533076016878,0.14726341798511752
1.78,-3.2641475371317936,0.10259896440992929,9.619586362255884,0.017106638168253592,0.07953780566783902,0.1441838571452067,-3.2745675169896895,0.09416062596491105,9.607992062378724,0.011849421752407403,0.07428058925199284,0.1389266407293605
1.79,-3.275808944008246,0.1133257161198368,9.612975952980564,0.009883990751891773,0.07333455947352373,0.13819356049642,-3.301335522961013,0.08975225764202784,9.58627254684583,0.015630328758653278,0.07908089748028524,0.1439398985031815
1.8,-3.2749636307273104,0.13644725958776527,9.618617777930803,0.01198574996085243,0.0764509167374227,0.14152779091284526,-3.2869817870244558,0.126354494158913,9.605420507850306,0.009238726200437499,0.07370389297700776,0.13878076715243032
1.81,-3.281067330307694,0.15250555458033954,9.617056341532278,0.021837863528008053,0.08731276201755521,0.1526123703943023,-3.3069179869867713,0.12855335323361403,9.590024507414867,0.015487045079631294,0.08096194356917845,0.14626155194592555
1.82,-3.338629887249749,0.11698846651452861,9.563782083896761,0.013460215255513492,0.07993991631306639,0.14546705651832698,-3.2888200150737075,0.1686706551022721,9.612408940259508,0.008689476113736152,0.07516917717128906,0.14069631737654964
1.83,-3.3078768415680186,0.16966818259696093,9.598569796470324,0.012042261740696593,0.07952177379507626,0.1452811791797891,-3.296448075165114,0.18294392545566662,9.6088139362461,0.013513283065896388,0.08099279512027605,0.1467522005049889
1.84,-3.317708759466611,0.18164188131318343,9.59251929102734,0.0030099014192011826,0.07148417085482031,0.13748050964789366,-3.332549938313233,0.16862314008537918,9.57649210452844,0.00939167733609102,0.07786594677171015,0.14386228556478348
1.85,-3.3263655676978168,0.19466739822653525,9.587391064969928,0.008696311862804952,0.0781602234065053,0.1443980978779879,-3.3242365788535078,0.19859508893036215,9.588332897098464,0.006128407200754587,0.07559231874445493,0.14183019321593754
1.86,-3.341906821616029,0.2006829580747026,9.575126032921037,-0.009830247984752905,0.06061812912821137,0.12710207476150573,-3.342796984992823,0.20156856563908618,9.573047797844001,0.011719658393609615,0.0821680355065739,0.14865198113986824
1.87,-3.3566015722818303,0.20741730780920997,9.563455659256356,0.0021684842444883376,0.07359608951926283,0.14033057419246933,-3.3416269333259794,0.2241455931966278,9.577241547667297,-0.0012608345811875288,0.07016677069358697,0.13690125536679348
1.8800000000000001,-3.3580246633041524,0.22729341989006688,9.564805660887451,-0.010880952195226935,0.061520583367435176,0.1285100065439178,-3.368430508669242,0.21861990422793143,9.553210624275765,-0.002934063311683236,0.06946747225097888,0.1364568954274615
1.8900000000000001,-3.368183896022263,0.2383013272339264,9.55716884169444,-0.009983356868077652,0.06338675104942561,0.13063544297768714,-3.3670520587545356,0.24114498643383087,9.557111287101455,0.0028015746261704343,0.0761716825436737,0.14342037447193523
1.9000000000000001,-3.3871281291315354,0.2403900237119393,9.540496992504451,-0.008465601969603387,0.06586766072312356,0.13337988164607928,-3.3625756427889284,0.26663463415530103,9.563860128344867,-0.006187567678084733,0.0681456950146422,0.13565791593759793
1.9100000000000001,-3.3948228976938486,0.253591845256593,9.534825271675247,-0.004621308781960857,0.07066963187759145,0.1384495712513294,-3.390126914986741,0.25996106495874205,9.538332189035891,-0.0011413889341565977,0.07414955172539571,0.14192949109913366
1.92,-3.4009767206633157,0.2681961624469552,9.530445897153427,-0.019697933127761094,0.05654514988449136,0.12459692560660668,-3.3784370534036166,0.29239099091308934,9.551797029782728,-0.010222941485867897,0.06602014152638455,0.13407191724849987
1.93,-3.3881169067706343,0.3016735747291695,9.544832340164083,-0.008597208429387578,0.06859242294405635,0.13692008059164731,-3.392836861757576,0.29859151687384955,9.538924628523931,-0.005193245008313077,0.07199638636513084,0.14032404401272183
1.94,-3.406110977047202,0.3041544879911879,9.528117902251015,-0.008710781666598331,0.06941974613280034,0.1380272582102133,-3.3970827550885616,0.31480415492271124,9.535959394432282,-0.012466469967832633,0.06566405783156605,0.13427156990897898
1.95,-3.388483062667799,0.34211271681311956,9.54677931698888,-0.008211018591743056,0.07085469619363495,0.13974596139004472,-3.396119051861959,0.3360825323573914,9.537957875365201,-0.014325798456808335,0.06473991632856968,0.13363118152497944
1.96,-3.416808688576477,0.3339707009286273,9.519241965902715,-0.02320806076539876,0.05678707450558613,0.12596591696249856,-3.41228073772864,0.3400896280192677,9.522585993649239,-0.013078799146442844,0.06691633612454205,0.13609517858145448
1.97,-3.421666112094588,0.3491481666986456,9.514928539396236,-0.007950738754909328,0.07296799389062461,0.14243816247938776,-3.42895709936536,0.3434341385351693,9.506455411775162,-0.02059654993794378,0.060322182707590155,0.1297923512963533
1.98,-3.4310970892002297,0.35960136090826333,9.505798269999705,-0.019226996441710175,0.06260945431172565,0.13237462192113533,-3.4287153520971994,0.36354685077173937,9.506999904301953,-0.024009723009249154,0.05782672774418667,0.12759189535359636
1.99,-3.431063147130487,0.379366778235524,9.505890659286262,-0.015339623010869713,0.06740861088872514,0.1374723737228112,-3.427656451039716,0.3843248307648582,9.508119546232425,-0.014044410281165121,0.06870382361842974,0.1387675864525158
2.0,-3.4415577956394916,0.38844895005929736,9.495213266123802,-0.02253757070398951,0.06111645615082721,0.13148233303690593,-3.427906433554399,0.4036400813306923,9.507689370066894,-0.02325816029733837,0.06039586655747835,0.13076174344355707
2.0100000000000002,-3.4294741707510075,0.419952800767649,9.506874062423982,-0.016061061110566897,0.06849271375065791,0.13916414545773595,-3.4384053139366837,0.4125506474392539,9.496770470615953,-0.017068758831284933,0.06748501602993986,0.1381564477370179
2.02,-3.448806859879781,0.419881822692616,9.486879607514226,-0.03252285022977878,0.05292457340790344,0.12390492197551933,-3.4639915234812193,0.4062161762059228,9.470525564427781,-0.03321575994256776,0.052231663695114464,0.12321201226273035
2.0300000000000002,-3.449844300202214,0.4379456777910048,9.48494264925244,-0.023784706500667867,0.0625502128845502,0.13384276096213799,-3.437641452203019,0.4516583752224779,9.49597944755165,-0.028152201466327718,0.05818271791889036,0.12947526599647813
2.04,-3.4500295856534837,0.4566993906941942,9.483621316507419,-0.02442425449269964,0.06279195429975477,0.1343999044966152,-3.4500429462830677,0.45818751515917294,9.482445497569078,-0.01984500897720412,0.06737119981525029,0.13897915001211072
2.05,-3.4532217850676297,0.47228203061063273,9.479057800488718,-0.030547455016637998,0.05754378402439452,0.12947025827035918,-3.4660572068844266,0.4609405309920086,9.465063774246989,-0.022591966182891752,0.06549927285814076,0.1374257471041054
2.06,-3.4539601155909168,0.4901525379508361,9.47671418079584,-0.027419925991861292,0.061540031819174584,0.13378807073604712,-3.454958079129017,0.49064173306515796,9.474561730022764,-0.03284142767101952,0.05611853014001636,0.1283665690568889
2.07,-3.4772789605762413,0.48527470646728244,9.451557406979157,-0.03827844006407371,0.051543873222333066,0.12411643550619314,-3.4712116773332253,0.4928231818905546,9.456474584223285,-0.028883400836875506,0.06093891244953127,0.13351147473339134
2.08,-3.483341443323785,0.49748360954415555,9.443425724247563,-0.04639174828421162,0.04428650587614355,0.11718646769059779,-3.4756001896519186,0.5067008835352009,9.450021517868572,-0.033025661091471245,0.05765259306888393,0.13055255488333817
2.09,-3.4726465529964146,0.5262784743085936,9.451821546994593,-0.035379529809950225,0.05614819983080577,0.1293783542112706,-3.5016276537813433,0.4987690139459065,9.421699897409786,-0.043896262895770095,0.0476314667449859,0.12086162112545074
2.1,-3.488237931929672,0.5286138943437624,9.43370267092337,-0.04158580872583272,0.05078488072970113,0.12434793699880234,-3.475478948610267,0.5428409273222212,9.445326282512369,-0.04231249658396924,0.050058192871564614,0.12362124914066583
2.11,-3.480785468638735,0.5538182367015037,9.438400679468153,-0.04343413026709981,0.049772953590931125,0.12367153678510376,-3.4643245900698365,0.5717443602872571,9.453731629634122,-0.031054887962303136,0.0621521958957278,0.13605077908990043
2.12,-3.470974490571695,0.5812044491653895,9.445231750463405,-0.0396911594836894,0.05434570414866799,0.12858235445604269,-3.4778957776043398,0.5757463854343647,9.43718624497621,-0.03747922953834719,0.0565576340940102,0.1307942844013849
2.13,-3.507170360631434,0.5624054637420423,9.405832059038248,-0.036672883261634835,0.058187096837084805,0.13276426904674338,-3.508610595571548,0.5624272099411427,9.403273582498608,-0.045883751336785246,0.048976228761934394,0.12355340097159297
2.14,-3.5014360275742358,0.5853566462727435,9.408140226628467,-0.03926117895683298,0.05641520616189291,0.13133526912457866,-3.4919234800146413,0.5963307088089264,9.416540776558252,-0.04161015516903344,0.05406622994969245,0.1289862929123782
2.15,-3.4839637256025755,0.6198640968480413,9.42196562078871,-0.0421183577923718,0.054367673308292716,0.12963290940865926,-3.5079700270674357,0.597319616466188,9.396853832908292,-0.05027255431535397,0.04621347678531055,0.12147871288567709
2.16,-3.4897960549147897,0.6308835692628003,9.412267274042497,-0.05581031923292438,0.04147855177182984,0.11709115641231281,-3.4980500849156027,0.6240924348133301,9.402914536136079,-0.04697488479620474,0.050313986208549474,0.12592659084903243
2.17,-3.5045192163619987,0.6328272363614671,9.393460648619804,-0.0538299111134766,0.044254947234885295,0.12021702833128112,-3.491666568066238,0.6471446189566095,9.405221634787633,-0.0465738489172855,0.05151100943107639,0.12747309052747222
2.18,-3.4860511212683933,0.667775580217631,9.40762952602637,-0.04649533506975108,0.05237861214143576,0.12869218963027165,-3.4936397977396836,0.6616542368175438,9.398956500364985,-0.0492496456594753,0.04962430155171153,0.12593787904054743
2.19,-3.506204177005163,0.6639146065576761,9.382963220854634,-0.054378102792022494,0.04527798944838488,0.12194499480616382,-3.5025965260634724,0.6689929449379337,9.385494102516684,-0.057182088094381925,0.04247400414602545,0.11914100950380438
2.2,-3.4906070358765295,0.6956140958702857,9.393834831278037,-0.04977779148669484,0.05065345716909352,0.12767573294349863,-3.5060522270006844,0.6816436975485051,9.377320717489383,-0.05082439272059484,0.049606855935193525,0.12662913170959864
2.21,-3.498445684818606,0.7036865137011765,9.381060148728242,-0.04830657501534283,0.052892797239402975,0.13027209659254432,-3.501679707328562,0.701932135585361,9.376765316524944,-0.044157508733776524,0.05704186352096928,0.13442116287411063
2.22,-3.50129126236381,0.7165591936805048,9.373069840302696,-0.05256465948593888,0.04939575993142812,0.12713374619521645,-3.493482422110401,0.7258532712114444,9.379826249760182,-0.04828077990862507,0.05367963950874193,0.13141762577253024
2.23,-3.492345843860505,0.7410285522933724,9.376663662913066,-0.05652073300685461,0.046193614104527624,0.12429186034825794,-3.4939113747265833,0.7409545877772161,9.374054345563604,-0.055737781231696835,0.0469765658796854,0.1250748121234157
2.24,-3.5037197512253333,0.744982779116186,9.35973315289738,-0.0551856849161893,0.048275427980897255,0.12673541659112622,-3.483589635482875,0.7666115212026565,9.378828391291293,-0.05234420423225814,0.05111690866482841,0.1295768972750574
2.25,-3.503499725369175,0.7603336643779904,9.354193452955075,-0.06547695947891692,0.038723715453290904,0.11754683772609065,-3.5035285373311655,0.761811264245459,9.353138936926896,-0.06300585590828799,0.041194819023919846,0.1200179412967196
2.2600000000000002,-3.488155785141929,0.7906097400017835,9.363576452559967,-0.05840615762421031,0.04652683435250909,0.12571439009818106,-3.4955642709396493,0.7847161714186349,9.355151699369005,-0.06219173388017674,0.04274125809654265,0.12192881384221463
2.27,-3.4864452335462475,0.8070522733757561,9.359126781101324,-0.05017727832184074,0.0554807450757527,0.135033942236084,-3.4893612941218817,0.805660349548149,9.355204152356647,-0.06295395643645785,0.042704066961135594,0.1222572641214669
2.2800000000000002,-3.47530743423229,0.8327204908425943,9.363907030741046,-0.06424016364155401,0.04213556553193963,0.12205551981008485,-3.491881067294494,0.8176809223010233,9.346336790363353,-0.05713700488311484,0.0492387242903788,0.129158678568524
2.29,-3.503099836477816,0.8192555527025892,9.329561730782993,-0.0666967979840895,0.040389271915313614,0.12067700641838403,-3.496006477350376,0.8278936062971564,9.335668704073239,-0.05570438178059908,0.05138168811880404,0.13166942262187445
2.3000000000000003,-3.499605488233784,0.8368730401505593,9.326309833974344,-0.06337787264033103,0.04441113415085524,0.125067579045298,-3.474552609342202,0.863481939410149,9.350386808044298,-0.07041975644575435,0.037369250345431926,0.11802569523987468
2.31,-3.4905060302438895,0.8598899611382561,9.328471721731015,-0.07197233290721833,0.036512168782862016,0.11753816096271077,-3.4800069901898083,0.8719570370437484,9.338005596345894,-0.06827702286784727,0.04020747882223307,0.12123347100208183
2.32,-3.4838919611123194,0.8802144852881094,9.32795893841274,-0.07420416698311898,0.0349683500839967,0.11636463285207523,-3.4645194903704173,0.9011676904250274,9.34637724021129,-0.06362326625867815,0.04554925080843754,0.12694553357651606
2.33,-3.4816466577446645,0.8959619234334845,9.322890170223422,-0.07321760852873811,0.03663540749872242,0.1184026302608824,-3.4944619285912646,0.8847407619148715,9.309131982706244,-0.0726271390474155,0.037225876980045036,0.11899309974220501
2.34,-3.4862869177985893,0.9046141851489697,9.31075070210012,-0.05976508418777052,0.05076087812691789,0.13289959609939153,-3.4733441895422588,0.9191650672382601,9.322762020315997,-0.08738901871367322,0.023136943601015182,0.10527566157348882
2.35,-3.4642890359764666,0.9396937024386186,9.325066340758845,-0.08024868183052972,0.030942638484436187,0.11345331241438403,-3.4648775762732513,0.9407280230898808,9.323558149906436,-0.07741103301023705,0.03378028730472885,0.11629096123467669
2.36,-3.484083878317345,0.9327683554248563,9.297408339739862,-0.07733506114268945,0.03451399391846728,0.11739698981780096,-3.4818656127437846,0.9366248445673092,9.298718965511672,-0.07792342214296502,0.033925632918191714,0.11680862881752539
2.37,-3.4710089568927964,0.9584993976336441,9.302441324048328,-0.08092702961501487,0.031572102621826754,0.1148276915143862,-3.469055553451716,0.9621070355254775,9.303499348041957,-0.08181450052993784,0.03068463170690379,0.11394022059946322
2.38,-3.451315957377581,0.9906339284050626,9.313915761919395,-0.07641254209834247,0.03672897608190635,0.12035733376407003,-3.4620979441695066,0.9815228278237499,9.302250903883271,-0.07689880427859709,0.03624271390165174,0.11987107158381541
2.39,-3.4568993205754217,0.9972763113491032,9.29993938262779,-0.07656420089275763,0.03721197899533799,0.1212131858101448,-3.4636859736513923,0.9921778296024649,9.292282612525641,-0.08287440194825993,0.030901777939835687,0.1149029847546425
2.4,-3.475379493959788,0.9908049227868896,9.272893924282117,-0.07700346060045238,0.037399624418882824,0.12177366504374305,-3.4554015108230076,1.012488988077505,9.292014788708755,-0.08490708789779643,0.029495997121538782,0.113870037746399
2.41,-3.4455103686615205,1.0324647147456063,9.29402769617237,-0.08566884766783259,0.029353354230976753,0.11410011747904907,-3.466015408456405,1.0136842858500292,9.272678778082266,-0.07828801154193317,0.03673419035687618,0.12148095360494848
2.42,-3.4427368356988968,1.0468096587115634,9.287898021875082,-0.08045384441405022,0.03517965510675161,0.12029893374206282,-3.4448319148315574,1.0464583292303642,9.284972544879738,-0.08399825986247889,0.03163523965832293,0.11675451829363416
2.43,-3.457109875970722,1.0437876556209995,9.264456148595965,-0.08591293066692912,0.030324016885563077,0.1158155074519458,-3.4412110129599713,1.0614500090005416,9.279538332030997,-0.09202075970854688,0.024216187843945327,0.10970767841032804
2.44,-3.4220761149525436,1.0899509811485104,9.290257691809954,-0.08584699863472048,0.030985517702585202,0.11684882036650852,-3.4276176238538962,1.0861932971320496,9.283913457229467,-0.08295937541412252,0.03387314092318316,0.11973644358710649
2.45,-3.444841530047265,1.0780925783419713,9.258098927247655,-0.09766028125188936,0.019759895646269173,0.10599451405363625,-3.4223049566251738,1.1024338966748513,9.279846962170701,-0.09810339837491062,0.019316778523247896,0.10555139693061498
2.46,-3.4304592759011348,1.103158232293048,9.262928964917519,-0.0915753219217994,0.026424579018795285,0.11302992016578128,-3.4422027349291278,1.0932410153023546,9.250411385446977,-0.08329423601041926,0.03470566493017542,0.12131100607716143
2.47,-3.4297087027757365,1.1143675517527216,9.253970730073164,-0.09557192494270529,0.022999735913108065,0.10997511003111013,-3.4395032042262628,1.106421358039628,9.2434167546253,-0.09496926478962958,0.02360239606618378,0.11057777018418585
2.48,-3.420085643517974,1.1342236821499163,9.253730675584151,-0.09199562544738525,0.027139804276197575,0.11448442473096884,-3.406976069231931,1.1492041898047574,9.266095648138883,-0.09891466826626517,0.020220761457317642,0.10756538191208892
2.49,-3.409350535610946,1.1549651835304102,9.254450659227508,-0.09409079452299915,0.025600386792041834,0.11331336999707899,-3.3991344073311125,1.1670754219863069,9.263937281215213,-0.0965071565345008,0.023184024780540186,0.11089700798557733
2.5,-3.3936941237031863,1.1804003280186008,9.25994224050273,-0.09559432206111015,0.024644568034267636,0.11272493337852184,-3.395445173495989,1.1805671075192206,9.257477000303169,-0.10164616678812882,0.018592723307248968,0.10667308865150317
2.5100000000000002,-3.4014887917005336,1.1821557677179257,9.241835347886148,-0.1043005821566631,0.01647794906973619,0.10492461885971514,-3.3975319294717514,1.1880547116938074,9.245093553233962,-0.0872761818307075,0.0335023493956918,0.12194901918567075
2.52,-3.3900745427098244,1.2028905547608213,9.242792298235782,-0.10387270848979524,0.01743737207917453,0.10624917149550281,-3.399388918270521,1.1955430376579905,9.232795014076268,-0.09518000323234113,0.02613007733662864,0.11494187675295692
2.5300000000000002,-3.3858689264346413,1.2161862139079707,9.236397868746433,-0.10180831714298748,0.02002519754234412,0.10920085461084705,-3.3771778778458312,1.2268694127403832,9.244421968813167,-0.09605893864352075,0.025774576041810854,0.11495023311031378
2.54,-3.3841794974560577,1.226734284264051,9.22734683802258,-0.09762143550566717,0.02472737533563085,0.11426552091300703,-3.3887206416586633,1.2242110878833043,9.222154914130305,-0.1015034672211778,0.02084534362012021,0.1103834891974964
2.5500000000000003,-3.366548728197875,1.2529914063104195,9.234099072469451,-0.09331808885983342,0.029537858148486945,0.11943702592263161,-3.3833880894009885,1.2381962869197678,9.216625306049316,-0.10603447539092457,0.016821471617395785,0.10672063939154046
2.56,-3.358254760656828,1.2696785701743858,9.23137877392221,-0.10031580988949311,0.02303909197593087,0.11329771848097289,-3.3637141090257714,1.2662902445455728,9.225301597257838,-0.10422792276840817,0.019126979097015814,0.10938560560205783
2.57,-3.366913268034886,1.2691792539979119,9.211572617376262,-0.10792634834956168,0.015919306451453043,0.10653573109756452,-3.3762745019319773,1.261916301137938,9.2016103312878,-0.11021123136042432,0.0136344234405904,0.10425084808670187
2.58,-3.3529390391789087,1.2910778395005693,9.214268165913536,-0.10323201725123858,0.02109616866331199,0.11206863378135054,-3.3538778359559505,1.292265049769401,9.212745288890693,-0.10593264043593013,0.01839554547862044,0.10936801059665899
2.59,-3.330220805226295,1.321484785338084,9.225579043426396,-0.10526273745866611,0.01953973855941332,0.11086638946045285,-3.343090056148946,1.310769725437162,9.212142876630352,-0.10360122764609116,0.02120124837198828,0.11252789927302781
2.6,-3.3358243952776303,1.3233334714355534,9.208441778318333,-0.11368299255445806,0.011585514083181573,0.10326439913298842,-3.3354216634803784,1.3259190263684053,9.208294947553815,-0.11315205398127869,0.012116452656360945,0.10379533770616779
2.61,-3.318861208119286,1.3475117272723103,9.21374733115858,-0.12289237368015281,0.002833886334369389,0.09486295704287644,-3.3289884429268013,1.3395963859415045,9.203088072480357,-0.11745274757738683,0.008273512437135366,0.10030258314564242
2.62,-3.3100605799324,1.3632894641821214,9.210768726354546,-0.11828698575251292,0.007888733353879851,0.10026584447971172,-3.3052089106163973,1.3703825255534514,9.215106092239267,-0.11301130926937983,0.013164409837012954,0.10554152096284482
2.63,-3.315686385354331,1.3644020743025487,9.193244450476024,-0.10917248379560354,0.01744438379266883,0.11016729346276777,-3.3130149716223167,1.3693447968400936,9.195419459263034,-0.11775769321063922,0.00885917437763316,0.10158208404773209
2.64,-3.2962599364153555,1.3903275316507668,9.200655552708694,-0.12066269682897177,0.006386993024402312,0.09945336286880374,-3.2868291492281854,1.402059952425917,9.209608007712925,-0.11423940722711158,0.012810282626262494,0.10587665247066393
2.65,-3.3000554756309013,1.3927908990455184,9.184730151156671,-0.10930756652757449,0.018166604486221552,0.11157399978802522,-3.2837509428858542,1.4114277879832726,9.20057459491697,-0.117481117655678,0.00999305335811804,0.10340044865992172
2.66,-3.2731852593620427,1.425679244762476,9.199358348881658,-0.1179811252562919,0.009909171644775673,0.10365506150535735,-3.2827138313341298,1.4185141391323195,9.189388097651829,-0.12325133525626437,0.0046389616448031905,0.09838485150538487
2.67,-3.278841725749687,1.425799474617614,9.181350065373428,-0.11881778339588923,0.009480270670659012,0.10356202819016481,-3.2635280622008067,1.4435080918593626,9.196240621946403,-0.11459882492053203,0.013699229146016227,0.10778098666552202
2.68,-3.278556007611501,1.4316198190894711,9.169176523062669,-0.12014320491079378,0.00855422487088435,0.10296912734404849,-3.2497627484440144,1.4628398860975376,9.197565406051314,-0.11975207752224534,0.008945352259432784,0.10336025473259693
2.69,-3.2588007182830916,1.4566670474988181,9.176367460894934,-0.1236360721784907,0.005452339859587398,0.10019756898691076,-3.2224014815638493,1.4955253025388768,9.212381206643416,-0.12035334153570658,0.008735070502371513,0.10348029962969488
2.7,-3.245724246690263,1.4747921729588738,9.17677683867898,-0.12284605544539035,0.006624934102108526,0.10169757621643476,-3.2345061808763247,1.4885018133856873,9.187628448973548,-0.12294824340881481,0.0065227461386840584,0.10159538825301029
2.71,-3.2369737945312043,1.4883474152172014,9.17275979933083,-0.12067248491738035,0.009172666824238044,0.10456971313275994,-3.219173885361153,1.5086717905297347,9.190212434446103,-0.1179736263221475,0.011871525419470888,0.10726857172799278
2.72,-3.2350921609831036,1.4947894159747528,9.161775883599217,-0.12839320238752092,0.0018176863841642193,0.0975360332258924,-3.220112835198188,1.5123264240443375,9.17642725851578,-0.12814633463362554,0.0020645541380595787,0.09778290097978776
2.73,-3.199550400188908,1.5346465814263128,9.184356372016808,-0.11778825337645067,0.01277993813155754,0.10881638725027924,-3.201864411342847,1.534923782639045,9.181733870551321,-0.12734472102246533,0.0032234704855428706,0.09925991960426457
2.74,-3.1916270620033345,1.5466398415432079,9.179225043598283,-0.12590609361551777,0.0050109579237738715,0.10136221675652915,-3.1953371097719483,1.545554839445424,9.175226099034953,-0.12616921898610328,0.004747832553188368,0.10109909138594365
2.75,-3.182727536055928,1.5593633060404546,9.174978831227653,-0.13095854848219685,0.00029891268961653155,0.09696159467071429,-3.1839324547269583,1.5608175588069264,9.173504737770749,-0.1296233063824355,0.0016341547893778884,0.09829683677047565
2.7600000000000002,-3.177615965642423,1.5680523505170145,9.166855907223596,-0.128030786165605,0.0035586272628420896,0.10052925214343844,-3.1745015984690563,1.5738602965583652,9.169720945587507,-0.1324366648208084,-0.0008472513923612963,0.09612337348823506
2.77,-3.1486835001539624,1.6003153640595982,9.182467430373508,-0.13562531793413127,-0.003712415886603592,0.09356257829665224,-3.156671812010008,1.5950553093309867,9.174249755072442,-0.1264259163595783,0.00548698568794938,0.10276197987120522
2.7800000000000002,-3.1571546439304154,1.5949274004237175,9.160591196550142,-0.128948938646232,0.0032789828353255506,0.10085467972716014,-3.145583731420822,1.609261508281117,9.171952825733781,-0.13326824197110118,-0.0010403204895436473,0.09653537640229094
2.79,-3.1237569050133684,1.6311605293163183,9.180501989435324,-0.14031586043187097,-0.007781393536114927,0.09009124683933754,-3.1398407875409324,1.617875029419539,9.164229013769635,-0.1400452478302364,-0.007510780934480361,0.09036185944097211
2.8000000000000003,-3.1215552923133045,1.6359493392655007,9.169137082836468,-0.13966073942482266,-0.006828205258374014,0.09133752712683527,-3.135870713229579,1.6244677263999592,9.154652864301667,-0.13840162232705955,-0.005569088160610905,0.09259664422459839
2.81,-3.1111386195166992,1.6487046337514382,9.16590993627016,-0.13691076990574738,-0.003788650026449197,0.09466623104336033,-3.108572804499326,1.6541399094264393,9.16832734973365,-0.1349236820913635,-0.001801562212065304,0.09665331885774422
2.82,-3.102262286246407,1.6596706500851726,9.16106741329974,-0.13454029163630937,-0.0011370703089338546,0.09760292468225815,-3.092437603623281,1.6724006621883154,9.170764186143636,-0.1405544124453641,-0.007151191117988559,0.09158880387320345
2.83,-3.084890386899183,1.6788829506112652,9.164647672202966,-0.13818308055449866,-0.004507244045427051,0.09451373909473196,-3.087044827971412,1.6796699130669985,9.162385903954252,-0.13903639498246426,-0.005360558473392648,0.09366042466676636
2.84,-3.0553476707522367,1.7100164626424184,9.180328205378087,-0.14396392993274823,-0.01002396580689988,0.08927378914510488,-3.054478109851108,1.7138636953395419,9.181111107606254,-0.1345135291751825,-0.0005735650493341425,0.09872418990267061
2.85,-3.072066779978023,1.6946382404867393,9.149678600849251,-0.14456623347598987,-0.010370629896158848,0.08919959042597818,-3.0619151562776623,1.7078039874531616,9.159764315309713,-0.14073631900387432,-0.006540715424043276,0.09302950489809375
2.86,-3.0508559263620287,1.716939788772843,9.156892865076513,-0.1344105872026212,3.216776861833352e-05,0.0998704573903097,-3.0431220014782374,1.727724460567112,9.164581706069377,-0.14794282929385294,-0.013500074322613423,0.08633821529907794
2.87,-3.035381470599708,1.733254483196543,9.158306843194486,-0.14450170751410576,-0.009820288418444966,0.09028158529468705,-3.020547939275345,1.7511755462157799,9.173116186838314,-0.14564927099762995,-0.010967851901969153,0.08913402181116287
2.88,-3.0176216892738994,1.7516038035877173,9.161944451578325,-0.1413265249545451,-0.006414927513384417,0.09394595645245457,-3.0035973924828454,1.7687525669599153,9.175965522666868,-0.14875879951074858,-0.013847202069587904,0.08651368189625108
2.89,-3.0015617510609367,1.7680023577490704,9.163822701189016,-0.1495024485166813,-0.01436915633144382,0.08624607594023119,-3.013183837836663,1.75954181150373,9.152218411324938,-0.14737620285734365,-0.012242910672106184,0.08837232159956883
2.9,-2.967091269015959,1.8025603292161736,9.184054144847456,-0.14950702150083445,-0.014160515309219312,0.0867043157513121,-2.996747398336824,1.7761029424011465,9.154436890520941,-0.15375651326483744,-0.01841000707322231,0.0824548239873091
2.91,-2.978704383946831,1.7907833939292934,9.15814679342813,-0.14220457721906504,-0.006653334212185841,0.09445625910366164,-2.961978216385539,1.810745622966406,9.174932964332953,-0.14291359038505003,-0.007362347378170843,0.09374724593767664
2.92,-2.953577735799171,1.81549474889443,9.168926144049843,-0.14232773786510394,-0.006580231008150684,0.0947692015819505,-2.9631761607315465,1.8091698103787086,9.159408895841766,-0.15341248359918605,-0.017664976742232788,0.08368445584786839
2.93,-2.951796403948262,1.8166091719376656,9.15630923936791,-0.1481464628824907,-0.012211160239071876,0.08937310278119441,-2.9542789831985927,1.8174375990029228,9.153929049988209,-0.15646301928114695,-0.020527716637728108,0.08105654638253817
2.94,-2.9313564822394196,1.8361304467111847,9.162302092126282,-0.14893207091960092,-0.01281743497992343,0.08899656436331044,-2.9277945952697273,1.8430409438545865,9.165987616583008,-0.15684994917692238,-0.020735313237244878,0.08107868610598899
2.95,-2.9100678119959027,1.856248629731762,9.169096951750587,-0.15706562875032662,-0.020780115763368967,0.08125844114782346,-2.93581148498088,1.8338912437556338,9.14349819301589,-0.15783716968893888,-0.02155165670198123,0.08048690020921119
2.96,-2.9009926853965724,1.8639013470493964,9.16363360057994,-0.15483055520091574,-0.018382614510750853,0.08387523719621404,-2.9127331015614213,1.8555849567430298,9.15205939922622,-0.1573338536280735,-0.02088591293790864,0.08137193876905625
2.97,-2.90094035757428,1.8622792821950551,9.149104841386684,-0.151219104029846,-0.014617177416267262,0.08785462294302984,-2.889720042323864,1.876961413228078,9.160512690433164,-0.15351276659544533,-0.016910839981866585,0.08556096037743051
2.98,-2.8638708257081076,1.8974223971342323,9.171552717910858,-0.15361199115929516,-0.016864512182900124,0.08581580797519502,-2.871459395614267,1.893333473094699,9.16417301381378,-0.1548391537717614,-0.018091674795366365,0.08458864536272878
2.99,-2.857287503722439,1.9018272576132957,9.163475839796671,-0.15523562353262554,-0.01835101688450886,0.08453231218509746,-2.847040225239887,1.9156120413200546,9.173953323712672,-0.1547880848866074,-0.017903478238490696,0.08497985083111563
3.0,-2.845054094886388,1.9116301606049473,9.161012509637308,-0.15244008838278622,-0.01542676923899401,0.08765397651254743,-2.8441731720096697,1.916086466481797,9.162144979747547,-0.15691139990758576,-0.019898080763793537,0.0831826649877479
3.0100000000000002,-2.816084243627629,1.9379174825386558,9.175251070814205,-0.16350094731929285,-0.026367320700188518,0.0769051688679444,-2.825452838253887,1.9321621562855371,9.166155361944494,-0.15370437530064707,-0.016570748681542746,0.08670174088659019
3.02,-2.8157772068071183,1.9352900080694624,9.160794235884353,-0.15939538613413629,-0.02214984626882593,0.08130863433629942,-2.8036773012814247,1.9510410641538978,9.173188356944541,-0.15457023272687842,-0.017324692861568056,0.0861337877435573
3.0300000000000002,-2.779186912574086,1.968693871265655,9.182590027396175,-0.15735937786275128,-0.02001030755871744,0.08362833212597762,-2.7893025630327766,1.9622672396190026,9.17278990802338,-0.1632917722461346,-0.025942701942100736,0.07769593774259431
3.04,-2.775438271696124,1.9690042443203815,9.171515466239354,-0.17166385842634338,-0.03421962844443198,0.06959325993586096,-2.7725042240019944,1.9756651544450168,9.174786340851195,-0.15735426061556382,-0.019910030633652414,0.08390285774664052
3.0500000000000003,-2.767676255390671,1.9730762597607785,9.164427493502206,-0.16449780399676697,-0.02696677243167309,0.07701437659973566,-2.7750454767991553,1.9694717091090648,9.157416369620902,-0.16484470870294896,-0.027313677137855055,0.0766674718935537
3.06,-2.738393693982086,1.9984172118303092,9.178835171512539,-0.16027498087226508,-0.022665492538659557,0.08147785221959042,-2.7480936858769764,1.9925196531167908,9.169514517021362,-0.16012901707006405,-0.022519528736458516,0.08162381602179146
3.0700000000000003,-2.7247283400518616,2.007889493376628,9.177602620394387,-0.17235313497453286,-0.034673520798971756,0.06962587867736217,-2.7166189894455903,2.0198389831283996,9.186112512031434,-0.1675505111304396,-0.029870896954878486,0.07442850252145543
3.08,-2.7065932265205865,2.0215802378062757,9.18081865970211,-0.16177653387522792,-0.024035110293983676,0.08041412761700265,-2.6930495060894355,2.0390017363811404,9.194784083021057,-0.16378758876677,-0.026046165185525744,0.07840307272546057
3.09,-2.6840057013920084,2.0394722843756874,9.188467773401488,-0.16986828940573667,-0.03207335776868963,0.0725194278430546,-2.702693289940768,2.0247000355535714,9.170223002304791,-0.16164734716333085,-0.023852415526283793,0.08074037008546044
3.1,-2.6767455084894003,2.0417860974882363,9.180772028867603,-0.16640824538887555,-0.028568091369599962,0.07616187759705714,-2.672546617537103,2.0499378019442034,9.185434799020557,-0.16976390882646825,-0.031923754807192645,0.07280621415946446
3.11,-2.6601027859491504,2.0532317682322376,9.182443078134654,-0.16246224991855204,-0.02458514293073247,0.08027557228575147,-2.674816949867722,2.0425077934592504,9.16821379682845,-0.17130123762384167,-0.03342413063602212,0.07143658458046181
3.12,-2.6516349365441187,2.0562521440872543,9.175925287325109,-0.16783744533991887,-0.029931637960226933,0.07505331450855263,-2.654537793205973,2.057376743812623,9.17352825283288,-0.17135408678752234,-0.033448279407830406,0.07153667306094914
3.13,-2.619334418118658,2.0828550385167217,9.193227945976329,-0.1668015224061603,-0.028875249803722296,0.07622735990814634,-2.623815171985078,2.082438889680381,9.189273884470348,-0.16827192979410274,-0.030345657191664724,0.07475695252020391
3.14,-2.5973607331777324,2.0988812414042703,9.200193277222267,-0.16703232981209834,-0.02909380918468065,0.07611980764401954,-2.6111216718098453,2.0892219277170527,9.186979826270504,-0.16530354953718163,-0.027365028909763965,0.07784858791893623
3.15,-2.5943303147658345,2.0957146331979866,9.188206551694424,-0.17933161747595552,-0.04138904749299397,0.06392885711758707,-2.5845958462626104,2.109587607775432,9.198509222832008,-0.16709222211064165,-0.029149652127680087,0.07616825248290096
3.16,-2.5861076990876333,2.0974910123105133,9.181404914690239,-0.17397221790833128,-0.03603377816092529,0.06938162660985586,-2.5805957938353377,2.107178155997771,9.187505651681438,-0.17585374320166214,-0.03791530345425612,0.06750010131652502
3.17,-2.5492427020244883,2.1276609186207733,9.203240209454696,-0.17664248145348313,-0.03871633191147724,0.06678971804653187,-2.5561817638672806,2.1249336688988643,9.196910517135686,-0.17380891806024798,-0.03588276851824208,0.06962328143976704
3.18,-2.5315178498156747,2.13844220280831,9.205931546306335,-0.16925608560363506,-0.03135036607990416,0.07423940768984683,-2.528065771092581,2.1461424988365074,9.210013435563555,-0.17187026386042015,-0.033964544336689266,0.07162522943306171
3.19,-2.519262330457524,2.1435060749669503,9.20315135105434,-0.17849789674262037,-0.04062072636467477,0.06504578440079559,-2.5123215715283003,2.1547312781387236,9.210742259315918,-0.17440565396026828,-0.036528483582322656,0.06913802718314771
3.2,-2.486131829367106,2.1691972689510273,9.221245529160187,-0.1751826343009419,-0.03734211098996425,0.06839408548969882,-2.4782678286606954,2.181381752929822,9.229779910366721,-0.1636639649640108,-0.02582344165303318,0.07991275482662988
3.21,-2.473908848727045,2.1737337230374765,9.218433146227154,-0.18812065674973225,-0.05032485670715752,0.05547391072760687,-2.4796755568064097,2.172323339778528,9.213356936788067,-0.1752580950608728,-0.037462295018298085,0.0683364724164663
3.22,-2.4642713062945316,2.1754379811205755,9.21303782903458,-0.1715543268874428,-0.03381130408918716,0.07204285706471523,-2.471220047805529,2.172881199011042,9.20679958590239,-0.16683276645031292,-0.029089743652057277,0.07676441750184512
3.23,-2.4478073448904247,2.183722383223388,9.214472955900987,-0.1888803636460828,-0.051198149344527225,0.05470416682896753,-2.4501708612961877,2.1857862444393263,9.212839813862017,-0.17459784523737573,-0.036915630935820176,0.06898668523767458
3.24,-2.4165201879117615,2.206584209982404,9.2307368010327,-0.1688468309396431,-0.031233433173472262,0.07470973888221069,-2.4223020671582365,2.205264900916897,9.225705043068572,-0.17799883391409582,-0.04038543614792502,0.06555773590775793
3.25,-2.40737940751654,2.207054414456456,9.224861266209,-0.18398327799874806,-0.046446681110744056,0.05952998828985761,-2.400670671894769,2.2182606779532748,9.232339735663333,-0.17819444155360548,-0.04065784466560148,0.06531882473500018
3.2600000000000002,-2.3995463505103722,2.2059721962301664,9.217686454774284,-0.18972973693339626,-0.05227790109628207,0.05372484876219459,-2.3955306274321106,2.2145201609063454,9.222491384607984,-0.1805309564953975,-0.043079120658283315,0.06292362920019334
3.27,-2.39894115643495,2.1974179833119005,9.203293653437091,-0.1861100359194835,-0.0487508966699096,0.05727045947163935,-2.3810358297743304,2.219890012316476,9.222007514919513,-0.18514459912669498,-0.04778545987712111,0.05823589626442784
3.2800000000000002,-2.347752709527557,2.239203480156828,9.239495380206796,-0.18961759120561078,-0.05235905898637383,0.05367337304944567,-2.3509521649679037,2.240604925926611,9.237123637603686,-0.18358933182765574,-0.04633079960841881,0.059701632427400696
3.29,-2.3361096645693236,2.241200641797378,9.236164358450225,-0.1737946913101446,-0.03664465102072508,0.06939127139188611,-2.3359323834651575,2.246012752299682,9.23718837519838,-0.18064504256589672,-0.04349500227647721,0.06254092013613398
3.3000000000000003,-2.329070497371754,2.238351623331347,9.228243466318528,-0.1858096672921501,-0.048775977847651524,0.05725579539229107,-2.320807348069645,2.251283250849979,9.237372213743502,-0.18303272860042144,-0.04599903915592285,0.06003273408401975
3.31,-2.289162285557759,2.2681299991114185,9.25320695588807,-0.1816765594572904,-0.0447670533558608,0.06125287823785065,-2.29644238206337,2.2655517416885527,9.246811154577578,-0.18679039385237872,-0.04988088775094914,0.05613904384276231
3.3200000000000003,-2.292603262507986,2.254318208765123,9.234837899144464,-0.1816662521404405,-0.044888735039251906,0.06111161062942875,-2.283863765053004,2.2677926097453347,9.244480218423796,-0.1817254689770013,-0.04494795187581269,0.06105239379286796
3.33,-2.2575298814979314,2.278780493019723,9.255001123784204,-0.18531319840340926,-0.04867544870326936,0.05729751608599651,-2.256766812606616,2.284311225096399,9.256685365693855,-0.19047373180175764,-0.05383598210161773,0.05213698268764814
3.34,-2.2306602827472686,2.2947994266104192,9.266979746112327,-0.17748857122574038,-0.040998339664405,0.06493939975571274,-2.206138282644432,2.324121536532714,9.292441090046072,-0.1771749505635216,-0.0406847190021862,0.06525302041793153
3.35,-2.2024752952821207,2.3118949163711178,9.280294169135354,-0.18079929417784293,-0.04446430343209731,0.06143031774439956,-2.2178887374347793,2.3013137095191607,9.26583805634648,-0.1791665787734301,-0.04283158802768446,0.06306303314881241
3.36,-2.1886280246985788,2.314414613419327,9.279292494761133,-0.1892129447401046,-0.0530408890366749,0.052802673797761275,-2.193513511731678,2.3143931580072516,9.275382132496425,-0.18613095041829958,-0.04995889471486986,0.055884668119566314
3.37,-2.1712780400189806,2.320199726243607,9.28181633691397,-0.18694192780436247,-0.05094047253971756,0.05484404580096926,-2.1663749398259093,2.3299983173296397,9.287712162354705,-0.18277705713838197,-0.046775601873737055,0.059008916466949765
3.38,-2.16056562750845,2.3191107668259354,9.277726567697382,-0.171481702058342,-0.03565848342744154,0.07005895939500302,-2.1740420383807404,2.3105609613051175,9.265260282882934,-0.18974150720902352,-0.05391828857812304,0.05179915424432152
3.39,-2.124278579151547,2.343360762099127,9.2992365289047,-0.1867306151629306,-0.051093239796970856,0.05454905279988048,-2.133957082417464,2.33863962618892,9.290585348149026,-0.1871485520200939,-0.051511176654134155,0.05413111594271718
3.4,-2.114250849043877,2.341116597484313,9.294513375622431,-0.18568679125114856,-0.05024283586435551,0.0553161893159141,-2.112764867437078,2.3475903484818663,9.297043667202235,-0.18836422656198049,-0.05292027117518742,0.052638754005082194
3.41,-2.096478692959006,2.3463828772480824,9.297561936665954,-0.1915016724957049,-0.05625868354121816,0.04920891575610599,-2.1175892203586546,2.3302901539177436,9.277512493139128,-0.19683445174228767,-0.06159146278780092,0.043876136509523225
3.42,-2.0705463218029387,2.3595762709669477,9.30879906113529,-0.18716939928089132,-0.05213489261578162,0.05323308227392758,-2.0906421074226276,2.3445279494806206,9.289780915212269,-0.19199890251762544,-0.056964395852515746,0.04840357903719346
3.43,-2.0430239081523256,2.3741275069029264,9.3216556118946,-0.1881563195535489,-0.05333778011300497,0.05192233301175063,-2.052944458125974,2.3692836993850577,9.312829034914412,-0.19030348798871932,-0.05548494854817542,0.049775164576580176
3.44,-2.0237606529706493,2.38018830519584,9.326283398881035,-0.1879218687169268,-0.05332675019764659,0.051817226206109186,-2.0345835182727847,2.3744710719356044,9.31657061295465,-0.1885769691623622,-0.05398185064308199,0.05116212576067379
3.45,-2.0418724425383985,2.348643720836361,9.293567522206885,-0.18587766079385934,-0.051513385346674226,0.0535061430233675,-2.023385408927651,2.3722648804781494,9.313180510338984,-0.19102373581814025,-0.056659460370955136,0.04836006799908659
3.46,-1.9981613947221788,2.3786925972947035,9.322706825929968,-0.19233330967102305,-0.0582072676027823,0.04667946631403136,-1.9869010341231446,2.3951151755917426,9.335108780703976,-0.19941592754818804,-0.0652898854799473,0.03959684843686637
3.47,-1.9669767846828186,2.3959866407049044,9.339352972392025,-0.1924553714899308,-0.0585749209746672,0.046170638220047425,-1.9706458256942914,2.397507500147942,9.33684092553035,-0.1905553634615353,-0.056674912946271666,0.048070646248442955
3.48,-1.9581785390099002,2.3906669256171647,9.333646948137615,-0.19677322420581578,-0.06314569100521208,0.04145028061393701,-1.9497529197991768,2.4043097126784865,9.343244717677399,-0.19667780828772974,-0.06305027508712605,0.04154569653202306
3.49,-1.9496703077155182,2.3848308228854487,9.327685991980678,-0.18788835886079755,-0.05452103605396664,0.049916903823374145,-1.9499170453705614,2.3898280988063956,9.328626312993222,-0.19287271628539063,-0.059505393478559716,0.04493254639878107
3.5,-1.9170404917977109,2.402890971979771,9.345882567507992,-0.19236014521726502,-0.05926029293985592,0.045011140995272036,-1.9365302870775252,2.3886716081613564,9.32759448742148,-0.19150793287618706,-0.05840808059877797,0.045863353336349985
3.5100000000000002,-1.9001894868710294,2.4049480372257492,9.348337119522173,-0.19340203803496472,-0.06057688322759975,0.04351954181589174,-1.9035891650788388,2.406844774497747,9.346153557323088,-0.18748631969923474,-0.05466116489186976,0.04943526015162173
3.52,-1.8705499676038828,2.419570423231684,9.363617789684335,-0.19599711944839204,-0.06345385561443903,0.04045903013037532,-1.87490514380105,2.4205372067821975,9.360492870779582,-0.19800860584540672,-0.06546534201145372,0.03844754373336062
3.5300000000000002,-1.8560461246246718,2.4188350378411316,9.36380117969426,-0.19582477892206637,-0.06357056589474343,0.04015022398412413,-1.8662547735657842,2.4139734474261823,9.354836666053544,-0.19337336137019773,-0.06111914834287479,0.04260164153599277
3.54,-1.852326977401535,2.407093979106122,9.353239038503212,-0.19021639991530262,-0.05825836363411148,0.045261748954410305,-1.8322289110781824,2.4325637516516823,9.374594851194125,-0.18835701872632463,-0.05639898244513351,0.04712113014338828
3.5500000000000003,-1.8105687388598728,2.43317217051683,9.380755897795035,-0.19107587149554742,-0.05942110379202565,0.04388972653315416,-1.7954198668281252,2.4537169399382446,9.397175856735808,-0.19351987013887215,-0.061865102435350365,0.04144572788982944
3.56,-1.7786048746345224,2.4492373015907702,9.398519012838555,-0.1962819845956842,-0.06493754298846356,0.03815537786546526,-1.8038777634864094,2.4293840394692316,9.374530277408132,-0.19038450709907545,-0.059040065491854817,0.044052855362074
3.5700000000000003,-1.757291691265394,2.454434239512741,9.405672774402381,-0.19765725006921633,-0.06663015756836982,0.03623620569003847,-1.7766144239339823,2.440554395939162,9.387646984218197,-0.19283682806014424,-0.06180973555929773,0.04105662769911056
3.58,-1.7488320925809904,2.4465612725810253,9.400014952487531,-0.1911547400062955,-0.060451984926952904,0.04217915301843957,-1.7444172345273454,2.4564418101189887,9.405739261302667,-0.20055788205222064,-0.06985512697287802,0.03277601097251445
3.59,-1.725514691662804,2.453330998066863,9.409257584484669,-0.1919748214433156,-0.06160335722852212,0.040783869420561544,-1.7135075404201363,2.4708261423592996,9.42258641072905,-0.18674602858235784,-0.056374564367564356,0.04601266228151931
3.6,-1.7198801427178052,2.4422039901599866,9.400860643428826,-0.1932838891246083,-0.06325063417739771,0.03888397825771695,-1.7061141552387058,2.4614798027336224,9.415960242948536,-0.20120240379961182,-0.07116914885240122,0.030965463582713453
3.61,-1.7089039041517782,2.4362060367074414,9.397849275058475,-0.1972806427658678,-0.0675924802905175,0.0342807994137408,-1.6872767526378598,2.463364359295672,9.420821685373804,-0.1932914557973055,-0.0636032933219552,0.03826998638230309
3.62,-1.670171277512969,2.4577531000762183,9.422638759009534,-0.19992607163310858,-0.07058984948553983,0.031013364710300813,-1.6571100391302527,2.476366365057001,9.43705660968842,-0.19741849646413456,-0.06808227431656583,0.033520939879274826
3.63,-1.6419741360186937,2.468554588427099,9.436937780431432,-0.19807695815577933,-0.06909948870306225,0.03222491428779562,-1.642130380919976,2.473970730954603,9.438149205157005,-0.20184035998401811,-0.07286289053130103,0.02846151245955684
3.64,-1.6394952941352061,2.453428985929358,9.425564060554827,-0.1853063829547558,-0.05669444294367443,0.04434239157111795,-1.6436247174961207,2.454891812052593,9.42281306518029,-0.19461209210920302,-0.06600015209812166,0.035036682416670725
3.65,-1.6123552113323623,2.4627571487948634,9.438897653089306,-0.196643580146382,-0.06840391058101175,0.03233658795911692,-1.603946758417281,2.476777210547116,9.448694990664004,-0.19985537829024785,-0.0716157087248776,0.02912478981525107
3.66,-1.5766409542478652,2.4804533428967446,9.460851982216145,-0.19953845816476737,-0.07167776419301233,0.028757621995552936,-1.6057498060362552,2.456974952825142,9.433142167452148,-0.20000579066645813,-0.07214509669470309,0.02829028949386218
3.67,-1.554415243011286,2.4844561972225376,9.469364796425815,-0.19988304197781875,-0.07240799278685293,0.027713497146069514,-1.5674422131516066,2.4770780315906236,9.457746708837874,-0.18958771963863993,-0.06211267044767412,0.038008819485248334
3.68,-1.5399004554382498,2.4805446994513365,9.470214164489672,-0.19772179521024172,-0.0706390239307948,0.029159779667948332,-1.5504469943943011,2.475664794249687,9.46108604434364,-0.2044093903149358,-0.07732661903548889,0.022472184563254245
3.69,-1.5215023613629841,2.480314461386896,9.474994741297541,-0.19502891104549652,-0.06834501466492011,0.031122307700666513,-1.5254964919811063,2.482004276923345,9.472428254138777,-0.1989202417318041,-0.07223634535122765,0.02723097701435897
3.7,-1.4999693434538097,2.483018497902051,9.482958547216457,-0.19103857493882972,-0.0647601142228774,0.034366928545135046,-1.4979986522816566,2.490689927640744,9.486365792647474,-0.19286780045781463,-0.06658933974186229,0.03253770302615015
3.71,-1.475322334770624,2.488637289135501,9.494085030711377,-0.21047596409289507,-0.08460946351614493,0.01416849918011009,-1.4883510318570417,2.4813256000552073,9.482501482689154,-0.19106171372782055,-0.06519521315107041,0.03358274954518461
3.72,-1.4553290916450239,2.4894045073603124,9.500606795647078,-0.21061396878911923,-0.08516591647396428,0.013254164922621353,-1.4656693280212332,2.4847970226317493,9.491719985099794,-0.19380729102629896,-0.06835923871114402,0.03006084268544161
3.73,-1.4296161010454853,2.495695109361814,9.512897694108714,-0.19293282864344116,-0.06790967630756929,0.030143723163794017,-1.4324746130529202,2.4985845641785835,9.511500564706516,-0.1935347590731479,-0.06851160673727602,0.029541792734087285
3.74,-1.42212442925227,2.4835694875002154,9.5070169779162,-0.20696017368318978,-0.08236833659547138,0.015309582283299858,-1.4388912139541996,2.472565353826185,9.49171921075883,-0.2007800637262319,-0.07618822663851349,0.021489692240257742
3.75,-1.380111091190945,2.5057721001091813,9.535707929483403,-0.20240639846835784,-0.07825225541305568,0.01904138751918478,-1.4036629487961667,2.4879970444139707,9.513632400776356,-0.19874451656502268,-0.07459037350972052,0.02270326942251994
3.7600000000000002,-1.383549182763828,2.4823313388910373,9.518997729682734,-0.20633051488142168,-0.08262040813063383,0.014280168168923808,-1.3839963677958826,2.4876745711401114,9.520033859668452,-0.20126742575962495,-0.07755731900883707,0.019343257290720565
3.77,-1.3624283624056097,2.483259047082493,9.526896976488699,-0.2006675311610929,-0.07740776645533591,0.019090958546323037,-1.3712322974848508,2.480258607114501,9.519583015765425,-0.20457702771050457,-0.08131726300474759,0.01518146199691136
3.7800000000000002,-1.3443961321885398,2.480909238065499,9.531758404074939,-0.20055613903060832,-0.07775298556744546,0.018335110843661826,-1.3488249374558325,2.4822964663280174,9.528825904274418,-0.1977543991554853,-0.07495124569232244,0.021136850718784846
3.79,-1.329546941892105,2.475188991008444,9.533487778949654,-0.18949330666127212,-0.06715299709188645,0.02851570215836833,-1.3221435048775638,2.488420458848684,9.542393522970224,-0.19975915940008923,-0.07741884983070356,0.01824984941955122
3.8000000000000003,-1.302956083120624,2.4810245564542863,9.547010006045936,-0.19496568060678993,-0.07309441104039975,0.022146132548688517,-1.282734254103632,2.5070858709184733,9.568739812794709,-0.19498809075298748,-0.07311682118659733,0.022123722402490945
3.81,-1.2823795667066007,2.4806614786179173,9.554569251528926,-0.20282987352567022,-0.08143380354168095,0.013369837301078939,-1.28204894158322,2.486842499743185,9.556413193156942,-0.19416294139472173,-0.07276687141073246,0.02203676943202744
3.8200000000000003,-1.2719692248392105,2.4699494929534023,9.552013840880399,-0.20211602629882355,-0.08120127896660669,0.013156724802194038,-1.264597145777584,2.4831823332715657,9.560904242230063,-0.18955765776227915,-0.06864291043006227,0.025715093338738445
3.83,-1.2406572078951785,2.479958029014001,9.570411762283328,-0.20050903866532513,-0.08008170057151139,0.013821945892508352,-1.2522674984935902,2.474218318552491,9.560324465833446,-0.20410851252495782,-0.08368117443114408,0.010222472032875667
3.84,-1.2345466408419496,2.4645855537351014,9.563660010436422,-0.19845961054972205,-0.07852573183289385,0.014914852528192678,-1.2059335041668608,2.4990785421377,9.593800478367486,-0.19972224491603138,-0.07978836619920318,0.013652218161883346
3.85,-1.2034092766784568,2.474061917674885,9.581986933333207,-0.20181943079121273,-0.08238502518387622,0.01058380904092382,-1.2001166405013561,2.483243129123379,9.586810902394003,-0.20125910050383042,-0.0818246948964939,0.011144139328306144
3.86,-1.1766332968563806,2.4790005542699443,9.59600443206265,-0.20393999515640918,-0.08501104003412488,0.007477374113917323,-1.1808182003188965,2.4807124009772132,9.593354527008739,-0.1943559291783585,-0.0754269740560742,0.017061440091968007
3.87,-1.1622101774944416,2.4714116132933817,9.597721094818636,-0.20030718696504693,-0.08188962340259388,0.010109720144824816,-1.1580075037428887,2.4815186630266934,9.603462095881465,-0.19749472373309823,-0.0790771601706452,0.012922183376773509
3.88,-1.1330505070394188,2.478386142861823,9.614226379464471,-0.19437470041188454,-0.07647443324633013,0.015027209912256317,-1.135302892541331,2.4820452097837538,9.613515313138539,-0.20892388927034475,-0.09102362210479037,0.0004780210537960825
3.89,-1.1160979219765528,2.472982153388819,9.618576678049722,-0.20014834359870945,-0.0827712414992551,0.008224093532014566,-1.135692129077779,2.4593059256571705,9.600526444639156,-0.19104293450410756,-0.0736658324046532,0.017329502626616464
3.9,-1.104208151381975,2.4623455726920693,9.617916272486498,-0.19781565150964972,-0.08096754705411806,0.009512895469846908,-1.1002649123901587,2.4722127685329216,9.623405802125193,-0.19471987254955805,-0.0778717680940264,0.01260867442993857
3.91,-1.0948325515965778,2.44902671097521,9.614793800105824,-0.19372633439868603,-0.07741302415651469,0.012543966141822595,-1.102885368397255,2.4469032792228407,9.60828925324485,-0.21075236856246912,-0.09443905832029778,-0.004482068021960494
3.92,-1.0476595800761677,2.473338786629409,9.649520780038905,-0.20063558166387405,-0.08486282628547684,0.004562178027830384,-1.070917168358201,2.4560154626563118,9.627813103324447,-0.20879033165013294,-0.09301757627173571,-0.003592571958428494
3.93,-1.0368473040100643,2.4611254172627817,9.647939104831297,-0.20782671273689063,-0.09260023704924507,-0.003715725230412946,-1.0290352347934986,2.4748760816066606,9.657302389679963,-0.19497661170496322,-0.07975013601731765,0.009134375801514471
3.94,-1.0214636258841174,2.4533203937817363,9.650980815113675,-0.1969192628956055,-0.08224475600392278,0.00609078534545875,-1.017867612308118,2.462858785511774,9.656129011027486,-0.19738162901885323,-0.08270712212717052,0.005628419222211013
3.95,-1.0064341044243768,2.4449998590881674,9.653720278892935,-0.19675288476815161,-0.0826360001634835,0.00514212255362621,-0.9909595522372009,2.466420025468579,9.670747643072025,-0.20347677637813819,-0.08935989177347008,-0.0015817690563603632
3.96,-0.9809174905322188,2.4470067717818447,9.666998655852797,-0.19537492367654577,-0.08182127934917918,0.00539100765554686,-0.9939210520877936,2.4399515144281,9.655548199301144,-0.19153838701228076,-0.07798474268491419,0.009227544319811855
3.97,-0.946332206850997,2.4579244262280313,9.68939741802357,-0.19692364973488063,-0.08393882829336985,0.002699238264696317,-0.9543996339976125,2.455807448370199,9.682883052762271,-0.19443060151125013,-0.08144578006973936,0.005192286488326806
3.98,-0.9477963987005074,2.4326364012542276,9.675798299084871,-0.19836778092407373,-0.08595732971975678,9.816525860818705e-05,-0.9479176748550047,2.438467175814026,9.677229706179512,-0.20189839740356033,-0.0894879461992434,-0.003432451220878426
3.99,-0.9175254980640392,2.438928995791364,9.693985730616276,-0.19313142340590933,-0.0813008546627539,0.0041637524514808524,-0.920606858722749,2.44180074502162,9.692456339767075,-0.1824897609598085,-0.0706591922166531,0.014805414897581661
4.0,-0.9077951264538506,2.42452832563382,9.69168393947012,-0.19634453849014447,-0.08509932943976581,-0.00023389038641623327,-0.9019303356870296,2.436346744773552,9.699099652618097,-0.19236586075608283,-0.08112065170570416,0.003744787347645411
4.01,-0.8749077310700211,2.433133686903379,9.712590311851207,-0.19532409083287958,-0.08466968385457195,-0.00041165574073250043,-0.8668867854129835,2.4471082404352673,9.722160799387114,-0.19878924026125544,-0.08813483328294781,-0.0038768051691083663
4.0200000000000005,-0.861170920241993,2.4224392202280405,9.714397058114209,-0.19979691334887736,-0.08973871611449759,-0.006096303279101843,-0.8834438193231746,2.4061193713980167,9.693671988349946,-0.19352143155377693,-0.08346323431939716,0.00017917851599858273
4.03,-0.842869888940806,2.4161614848478097,9.720818787490604,-0.19657115071839731,-0.08711453634193764,-0.004095903371846075,-0.8467797034376813,2.4182036278557995,9.718454758802162,-0.1997316962009026,-0.09027508182444291,-0.007256448854351347
4.04,-0.8295349123622416,2.4047719646473715,9.722325014744758,-0.1991901420059765,-0.09034044919766296,-0.007953719724744294,-0.825294907094442,2.4149623016998145,9.72810843257729,-0.2008996558539923,-0.09204996304567875,-0.009663233572760088
4.05,-0.7906885875388097,2.4187498261579523,9.749392918801263,-0.19948146259777114,-0.09124399582252053,-0.009497251330475446,-0.8138311134207844,2.4015554756597135,9.727791103813928,-0.19168670138789853,-0.08344923461264792,-0.0017024901206028394
4.0600000000000005,-0.8071464462162455,2.3772813052927866,9.721206730107713,-0.19326775709980973,-0.0856477867398785,-0.004549065381083068,-0.7898282771668705,2.4005449650810244,9.740062581360803,-0.19690026518081405,-0.08928029482088282,-0.008181573462087387
4.07,-0.76560726550516,2.3936693963057714,9.751067420222217,-0.20080125853899325,-0.09380402106064786,-0.013361316483290576,-0.7679239762176072,2.3972949660224177,9.750285037503259,-0.18965833260855192,-0.08266109513020653,-0.0022183905528492427
4.08,-0.758059326683848,2.3759275925974164,9.746986443249543,-0.19385846633770193,-0.08748916446174207,-0.007710424647525141,-0.7413635356042902,2.3985619308516477,9.765212884189742,-0.19866676013888962,-0.09229745826292977,-0.012518718448712846
4.09,-0.7298748423584853,2.378685459162083,9.763591308919622,-0.1879253409339071,-0.08218914380986841,-0.0030822699225403604,-0.705759486978252,2.408735108378147,9.789233313795975,-0.20491231852076297,-0.09917612139672428,-0.02006924750939624
4.1,-0.7086180233893,2.3743805652680474,9.773317515899718,-0.19699583436487814,-0.09189787774874221,-0.013470722993726085,-0.724318294557697,2.3646098175111887,9.759139573415592,-0.1981720303054503,-0.09307407368931439,-0.014646918934298264
4.11,-0.6966860604791181,2.3606175024741898,9.77376757044385,-0.19574724979555555,-0.09129263623079338,-0.013553004726171157,-0.68657839235772,2.37664940963384,9.78539292786712,-0.19514930060335148,-0.09069468703858932,-0.012955055533967095
4.12,-0.6875457758356628,2.343931232572103,9.771474334967927,-0.19342024649546655,-0.0896140454972397,-0.012569691156348884,-0.6611338541157349,2.3762615982806414,9.799398990005045,-0.20474080847375162,-0.10093460747552475,-0.023890253134633947
4.13,-0.648388396044028,2.357132314317346,9.799246255414229,-0.19788355792506476,-0.09473080616740895,-0.018389431593305427,-0.6509946668896494,2.3604381851418292,9.798147447357552,-0.2006217412579291,-0.09746898950027326,-0.02112761492616974
4.14,-0.6391681776357498,2.340268277463642,9.797128735918644,-0.1889549171527181,-0.0864606186585319,-0.01082987405056756,-0.6466283613124273,2.3387134294106824,9.791170432107238,-0.19349852298757908,-0.09100422449339289,-0.015373479885428547
4.15,-0.6221728172568795,2.331053212197746,9.802833728878275,-0.18728298210467684,-0.08545210843833832,-0.010539590511099487,-0.6180410829860052,2.3410829759911542,9.808461449931798,-0.2000281871104284,-0.09819731344408987,-0.02328479551685104
4.16,-0.609279508992881,2.317611711417381,9.804483677861446,-0.19763405962362438,-0.09647155008605669,-0.022284801000903715,-0.5867923553761475,2.3459890922044297,9.828460617342959,-0.18856723388697424,-0.08740472434940656,-0.013217975264253582
4.17,-0.6003537878869608,2.300080026815787,9.802212674323593,-0.19831916646203182,-0.09782992828803998,-0.024376434597486157,-0.590272533847122,2.3160432133556768,9.813777207884861,-0.19037474325382445,-0.0898855050798326,-0.016432011389278786
4.18,-0.5592341278492775,2.3146214705756125,9.832181859931366,-0.19600631599168625,-0.09619522454938498,-0.023482416154547315,-0.5800496878802373,2.299679060117131,9.812842770147673,-0.19591828263636618,-0.09610719119406491,-0.023394382799227256
4.19,-0.5454016408810759,2.3017567157483203,9.83490972757099,-0.20251147361134234,-0.10338337260349569,-0.0314186217248465,-0.545681361399094,2.307340877804873,9.83609936767361,-0.20015607958028936,-0.10102797857244271,-0.029063227693793527
4.2,-0.5212747630621521,2.2990691098708487,9.847977435592338,-0.18565449593443314,-0.08721419760152546,-0.016004817763168783,-0.5216987576554797,2.3044992510955242,9.849015394301329,-0.19474455328435655,-0.09630425495144888,-0.0250948751130922
4.21,-0.5059282682840874,2.2874856608372744,9.852309794306311,-0.18116166388756108,-0.0834139492124198,-0.01296719424011279,-0.5163545754202581,2.282903267438692,9.843337738204383,-0.18901835357094657,-0.09127063889580529,-0.02082388392349828
4.22,-0.5001949535978849,2.266175351157056,9.847073580866759,-0.1894027246469323,-0.09235234356072188,-0.02267540659385668,-0.4922964404642314,2.279907085180395,9.856418350638616,-0.18684225218195843,-0.08979187109574803,-0.020114934128882832
4.23,-0.4712930924496583,2.267921684326351,9.865050086263354,-0.19459178852500641,-0.09824346011441304,-0.02934347263216975,-0.496833971479978,2.2482028672466132,9.840947180247534,-0.18597391344273365,-0.08962558503214028,-0.020725597549896998
4.24,-0.45893886111270554,2.253010258004317,9.866522689116987,-0.19339109679868266,-0.09774950951410917,-0.029633540375985493,-0.4715366384607425,2.2462229223711323,9.855354314909546,-0.1987607920049602,-0.1031192047203867,-0.035003235582263016
4.25,-0.4572148273425514,2.2273602749679013,9.85740836725104,-0.184989368295574,-0.09005918016016579,-0.02273423466108545,-0.44122717172441295,2.2491462956797306,9.874816572938885,-0.19543581872707816,-0.10050563059166993,-0.033180685092589604
4.26,-0.44181745738473643,2.2152770357156464,9.862010190908842,-0.18333276594398756,-0.08911860476330873,-0.022591623703504454,-0.4320917478741368,2.230788582339463,9.873147317348845,-0.1875629450857891,-0.09334878390511026,-0.026821802845305984
4.2700000000000005,-0.4217222931404928,2.2077867609154413,9.871352145811985,-0.19711514305741443,-0.10362160662959514,-0.03789946539945818,-0.41400696031359935,2.221274956655098,9.880469485559033,-0.19007052356124202,-0.09657698713342273,-0.030854845903285768
4.28,-0.3887134333942743,2.2131071097925292,9.89364965215564,-0.18809291806378153,-0.09532457438995691,-0.030414082070038935,-0.38785708841832545,2.2197229025116094,9.895898320445452,-0.17340165522004694,-0.08063331154622233,-0.015722819226304346
4.29,-0.3820990270289076,2.191931686532098,9.889594071614978,-0.18341164404036875,-0.09137303153523138,-0.027280930011581016,-0.3704503152614893,2.209325995264352,9.902625152834766,-0.18201037143700466,-0.08997175893186732,-0.025879657408216954
4.3,-0.3382738285282643,2.2078674843968282,9.92279015206287,-0.18831353815319088,-0.09700916585547863,-0.033742128950488455,-0.36850159745427746,2.1833710315171273,9.8939345318828,-0.19267686414225618,-0.10137249184454393,-0.03810545493955375
4.3100000000000005,-0.3604658836178454,2.1576881997091117,9.890009342148371,-0.19288190901315272,-0.10231625679589422,-0.03988088941482994,-0.3386011036908229,2.185269590198254,9.913235786747128,-0.1864418059668161,-0.09587615374955757,-0.0334407863684933
4.32,-0.3207852639716782,2.1692854967697865,9.919141056807609,-0.1808928015034381,-0.09107032028377982,-0.02947315757715669,-0.32030342246375304,2.1754688244688207,9.920973819087763,-0.1847796004818989,-0.09495711926224061,-0.0333599565556175
4.33,-0.316568124302887,2.1453249503961365,9.912848620389704,-0.1792142029032511,-0.09013931485169009,-0.029386821393658374,-0.3104536737695628,2.157125349644039,9.920302991576671,-0.18092845591428544,-0.09185356786272443,-0.03110107440469271
4.34,-0.28609860049620567,2.147524147421148,9.932847368739422,-0.183440021055272,-0.09511711980411976,-0.035215688787013505,-0.29265991225955856,2.146632839672197,9.927614724960423,-0.19640471392994222,-0.10808181267878997,-0.04818038166168373
4.3500000000000005,-0.27187081267211716,2.1333906832644454,9.93664264634686,-0.18395648960766509,-0.09638994045856845,-0.03734589290376879,-0.26771035496679635,2.143204799040918,9.942120270545443,-0.18274009527109664,-0.095173546122,-0.03612949856720034
4.36,-0.2494305958846524,2.127380430873116,9.948688075862187,-0.17982679143969482,-0.0930209315700416,-0.03484051555529758,-0.25458834626256316,2.1278595974573915,9.944835745452428,-0.1829983775683601,-0.0961925176987069,-0.03801210168396288
4.37,-0.24591118803401676,2.1023618524513723,9.941849870394142,-0.1865207641489964,-0.10047990281703434,-0.04316929272038175,-0.23592515583825419,2.117967671506866,9.953129334843949,-0.17832915787318523,-0.09228829654122316,-0.034977686444570576
4.38,-0.21267207730039744,2.106977151672908,9.964767986286033,-0.18894018288578382,-0.10366860163428264,-0.0472338973946936,-0.22351704832063962,2.1017344546816026,9.955204222517322,-0.17564713697499842,-0.09037555572349723,-0.03394085148390819
4.39,-0.21034653291042643,2.0805947425646494,9.956808592557724,-0.1834258163904079,-0.09892776924869602,-0.04337499564358756,-0.21694791531509505,2.0795777449859068,9.95147595906814,-0.19101163817701947,-0.1065135910353076,-0.05096081743019913
4.4,-0.20531343866232327,2.056837415636041,9.951592237587592,-0.17878215212500442,-0.09506186580921223,-0.04039697174893628,-0.19864316260998593,2.0690738173841945,9.959518574891286,-0.18631282891578382,-0.10259254259999162,-0.04792764853971567
4.41,-0.16395226897845933,2.0693273614852923,9.98273887326568,-0.17502237891441322,-0.09208405302575792,-0.03831291086518931,-0.1721097895462326,2.0667173440882536,9.975824501015367,-0.18108359459760034,-0.09814526870894506,-0.044374126548376434
4.42,-0.174068305107054,2.030260954261045,9.962442638996368,-0.18205183664717092,-0.09989964386811884,-0.04702804873545277,-0.16213942650747257,2.047718356728437,9.975601531815228,-0.1776944143142612,-0.09554222153520911,-0.04267062640254305
4.43,-0.1613392029109532,2.0139621835416865,9.965025294112658,-0.1779722809329949,-0.09661036722113774,-0.044644036364002306,-0.16146263869895158,2.0193479422408487,9.966118521434332,-0.18457239771820336,-0.10321048400634619,-0.05124415314921077
4.44,-0.14289297220089958,2.00330467467506,9.973358238744515,-0.18350866402379815,-0.10294114880328357,-0.051885720952266484,-0.1448347419762364,2.0068524267095786,9.972619568155968,-0.17865730646687664,-0.09808979124636208,-0.04703436339534499
4.45,-0.11724570475642396,1.9997739604356146,9.988924785998355,-0.17852495959157,-0.09875593594192679,-0.0486169706916107,-0.1280070218362164,1.994482156051696,9.97935279561084,-0.1688286967331543,-0.08905967308351108,-0.038920707833195
4.46,-0.11486930023534032,1.9728997547981408,9.981252436246507,-0.17027692345828965,-0.09131045830049103,-0.04209343550808615,-0.09045300164247289,2.0027652274730534,10.006844084748895,-0.17501064121609838,-0.09604417605829974,-0.046827153265894865
4.47,-0.08742338526468474,1.9710240335354619,9.998680958233965,-0.17660273282697134,-0.09844286710658094,-0.05015318630823726,-0.09354641970947415,1.9703295120706512,9.993719096951065,-0.17664800698109914,-0.09848814126070875,-0.05019846046236507
4.48,-0.06094141959259964,1.9681149277607046,10.015176283122855,-0.17198064561647328,-0.09463139448372096,-0.04727437432859652,-0.08783528721806251,1.9466285966092243,9.989429216308324,-0.17927843571613317,-0.10192918458338085,-0.054572164428256416
4.49,-0.07616909647946479,1.9234283232360037,9.989992104296322,-0.17942988046261796,-0.1028952334492546,-0.056476111151411164,-0.07732284007821505,1.927660831356223,9.989970597952192,-0.17589941404608453,-0.09936476703272118,-0.05294564473487774
4.5,-0.05668072921598271,1.9133914735600839,9.999553491034229,-0.17316046455721795,-0.09744438575000038,-0.051968316558192056,-0.0513303110478098,1.9241065576666119,10.006021396127942,-0.17768853017180855,-0.10197245136459097,-0.05649638217278266
4.51,-0.031721214389772795,1.9087610366133405,10.01461492543902,-0.1772051337209789,-0.1023115619316387,-0.05778361861705274,-0.017255109942572608,1.928569927482485,10.03018358417533,-0.1785043602088415,-0.10361078841950133,-0.059082845104915356
4.5200000000000005,-0.014940513965158338,1.8958885921958475,10.021525820547158,-0.16731081888023466,-0.09324366781178642,-0.04966884017378963,-0.034105008797611455,1.882044717887203,10.003448769556485,-0.16795821452351478,-0.09389106345506652,-0.050316235817069725
4.53,-0.011614136213276997,1.8695001608213355,10.015010039588988,-0.1693099622328965,-0.09607312064214381,-0.053456315032082743,0.012451532358136896,1.8988640050529058,10.040147868269646,-0.16897231612461058,-0.0957354745338579,-0.05311866892379684
4.54,0.010585684784680971,1.8619250239444385,10.027394716674207,-0.1696527828760996,-0.09725011473220005,-0.05559615359529745,-0.0005606812460123688,1.8560541172209357,10.017305058288137,-0.16421670816983672,-0.09181404002593715,-0.05016007888903456
4.55,0.029370754298510885,1.8508764888588065,10.036391022140434,-0.16761834135161063,-0.09605368599056177,-0.05536730742594528,0.040520323058896045,1.8672785366181577,10.048581681927514,-0.1785950969122947,-0.10703044155124582,-0.06634406298662932
4.5600000000000005,0.01845960607271653,1.8100745775645888,10.015716851863294,-0.1680834459635867,-0.09736061823850019,-0.05764647557739376,0.03438892870578846,1.8312331425228947,10.032671489354438,-0.16368387651188848,-0.09296104878680198,-0.053246906125695534
4.57,0.07057684948239445,1.8322453736749127,10.058096174597416,-0.16527987720143378,-0.09540266762846436,-0.056665329030567674,0.05971557639294449,1.8265898575147437,10.048244285271387,-0.16615188685733576,-0.09627467728436637,-0.05753733868646967
4.58,0.07652321441540332,1.8081910670555943,10.054329077042627,-0.16713861130581514,-0.09811078620561735,-0.06035473427369229,0.06417440154215245,1.801024284688107,10.042973566557036,-0.17087092004867915,-0.10184309494848134,-0.0640870430165563
4.59,0.08589987901327702,1.787514281330694,10.054016091767714,-0.16409416874558266,-0.09591947038016747,-0.059149101792845306,0.07295596273578897,1.779728435851744,10.042049250884407,-0.16951769031613512,-0.10134299195071991,-0.06457262336339775
4.6000000000000005,0.10484114148539364,1.776350745468538,10.063290869206353,-0.16330123529048055,-0.09598338199534913,-0.060203007158165664,0.10610519361133913,1.7827486831929675,10.06551562879535,-0.1622266804155629,-0.09490882712043149,-0.05912845228324802
4.61,0.09575141524291024,1.737106288694843,10.04455717297171,-0.16701135201912998,-0.1005540383305641,-0.06576788104522499,0.09767389490133724,1.744138251094592,10.047423855919384,-0.16902631723301278,-0.10256900354444691,-0.0677828462591078
4.62,0.1032771215048002,1.7144287328853742,10.042460772642054,-0.15594735398383408,-0.09035425076122508,-0.056566447913098554,0.10394796169328811,1.7201844431792936,10.04405918041142,-0.15684863446766117,-0.0912555312450522,-0.05746772839692566
4.63,0.13259718865425008,1.713498391716538,10.062179943295698,-0.1669169511185739,-0.1021917056616755,-0.06940630692550272,0.11588588580472194,1.7018471444766743,10.046379445503575,-0.16775429741172157,-0.10302905195482315,-0.07024365321865036
4.64,0.13847737697662815,1.689082395205235,10.058479790426494,-0.16048524208754594,-0.09663147824853872,-0.0648524458123468,0.13697307104715928,1.6926131364869186,10.057869404944931,-0.16551633806808466,-0.10166257422907744,-0.06988354179288551
4.65,0.16674323748002756,1.687007648339033,10.07718520894087,-0.16643090117671272,-0.10345221946697239,-0.07268342777417097,0.14747370334382673,1.672747967105951,10.058792593293974,-0.16936280779641497,-0.10638412608667465,-0.07561533439387323
4.66,0.16402320681586421,1.6539039258143249,10.064923978253974,-0.15250750564306248,-0.0904074833345247,-0.060652718844158515,0.16042520835181476,1.655290408062958,10.06218578371457,-0.15888355995977432,-0.09678353765123653,-0.06702877316087034
4.67,0.1778464387571901,1.6373017033401356,10.069224593942545,-0.16547955829747388,-0.10426174951849437,-0.07552471048362314,0.16919490124802247,1.6336091045296328,10.061415637934733,-0.1564971562076957,-0.09527934742871617,-0.06654230839384494
4.68,0.1790775743393766,1.6080669276124298,10.060951038059239,-0.15285635610566678,-0.09252429193127609,-0.06480858819544268,0.1886988084688595,1.622621396691307,10.071397528158247,-0.1504868233964538,-0.09015475922206315,-0.06243905548622972
4.69,0.20352130406512017,1.6020055783608658,10.075907341510357,-0.14576361109585265,-0.08632079963231007,-0.05962995244405682,0.19676727518445986,1.6001589270607188,10.0699611447099,-0.15041660480579933,-0.09097379334225676,-0.06428294615400351
4.7,0.21835216643079502,1.5862934667252246,10.081267382754021,-0.1475621980354738,-0.08901212449902611,-0.06334956634441025,0.20417484481066872,1.5769975198378807,10.0678803757176,-0.15844654325041954,-0.09989646971397186,-0.07423391155935599
4.71,0.22639944059047692,1.5637611277777776,10.079859780635172,-0.15450682836069846,-0.0968529551504551,-0.0722220296035128,0.2061556884849142,1.548372610242103,10.060388736757531,-0.15403083111353436,-0.096376957903291,-0.0717460323563487
4.72,0.2503991065662777,1.5571457806004607,10.09441985476601,-0.14866063717710418,-0.0919064039419406,-0.06831036553304007,0.22013224686363442,1.5317078861740685,10.064908012820021,-0.1535718836652806,-0.09681765043011703,-0.07322161202121649
4.73,0.22707064627702564,1.5031681291888657,10.061666426723956,-0.15499795784867004,-0.09914678154807736,-0.07658879565009906,0.2481112518412403,1.529011309807918,10.083444280196147,-0.15311347760557298,-0.0972623013049803,-0.074704315407002
4.74,0.2738853692109065,1.519300688008792,10.099070145892778,-0.15725976058439955,-0.10231503554319882,-0.08079817827547368,0.2760241374298883,1.5262155283527474,10.10192831752434,-0.14620575144046394,-0.09126102639926319,-0.06974416913153805
4.75,0.26952195272788737,1.4842233221912098,10.085309029932727,-0.14618593235335073,-0.0921510303101968,-0.07167828846013112,0.2795491667836178,1.4990000009670985,10.096037732980612,-0.15302802385454206,-0.09899312181138815,-0.07852037996132248
4.76,0.2648045089346849,1.4487613143085103,10.071206531822405,-0.15144453321906753,-0.09832280336866794,-0.07889707433097475,0.2923489148445863,1.4810284813042998,10.0994344470901,-0.14573010992961793,-0.09260838007921836,-0.07318265104152516
4.7700000000000005,0.3007818163248405,1.4539645959246157,10.097810771665047,-0.1428693046908577,-0.09066407371983774,-0.07228816545329311,0.28203584448110314,1.4399145935583568,10.079730269029707,-0.14907729115053917,-0.09687206017951921,-0.07849615191297458
4.78,0.2944463547816828,1.4168267825168432,10.082113571856945,-0.1424833539131527,-0.09119792602949825,-0.07387455703113348,0.3172191440040899,1.4442686698971456,10.105533734308466,-0.1387436683880804,-0.08745824050442595,-0.07013487150606118
4.79,0.30208692771435014,1.393637795539678,10.08040307938819,-0.15308729498353138,-0.10272495193954946,-0.08645675123618765,0.3133651247587978,1.4095581479797097,10.092310502522418,-0.16010649793169837,-0.10974415488771647,-0.09347595418435466
4.8,0.3214351956581424,1.3821303959618592,10.090410299607127,-0.1478610960897676,-0.09842509719850176,-0.08321460435554018,0.3136340746659874,1.3789444244320228,10.083220211058363,-0.15753940640283098,-0.10810340751156514,-0.09289291466860355
4.8100000000000005,0.3370539947769198,1.3668685027144607,10.096697414886066,-0.1472518407694411,-0.09874542291448818,-0.08459508806182496,0.3288481359727304,1.3632507325413075,10.089084353006479,-0.1414199409618867,-0.09291352310693379,-0.07876318825427057
4.82,0.35138014538464024,1.3502900011671812,10.101700593305592,-0.14382917427735345,-0.09625555191602661,-0.08316773579102427,0.3640819643596279,1.367552801315867,10.114976936428802,-0.14477478918666842,-0.09720116682534156,-0.08411335070033922
4.83,0.3514661018391365,1.3194483929858916,10.092471638710403,-0.14792146205215773,-0.10128382721194885,-0.08926080121932488,0.3623604053172502,1.334876531823151,10.10392216089627,-0.14449903912175255,-0.09786140428154369,-0.08583837828891971
4.84,0.37500619608621927,1.3120390396496482,10.106704234414833,-0.15468436812659445,-0.1089858903948886,-0.09802983668341554,0.36812583692839707,1.309665339942794,10.10036176043095,-0.15144621845163975,-0.10574774071993391,-0.09479168700846086
4.8500000000000005,0.390723890225434,1.2967864149984532,10.113121195929423,-0.13505479562502218,-0.09029862213202239,-0.08041163368791918,0.35874712659445707,1.2692891130728536,10.08166396039179,-0.1435896902452626,-0.09883351675226282,-0.0889465283081596
4.86,0.38582768122239064,1.2609000099367949,10.098930375833497,-0.13410213979262464,-0.09029139518744815,-0.08147547594433616,0.39438158607078155,1.273906165154278,10.107985432668833,-0.1456492394137696,-0.10183849480859308,-0.0930225755654811
4.87,0.39907587723500965,1.2431391087602095,10.102889440260965,-0.13227732635030007,-0.0894151127702115,-0.08167217773550947,0.39427616768542684,1.2427644328878558,10.098572492060143,-0.1347307541083727,-0.09186854052828415,-0.08412560549358213
4.88,0.40989476026054306,1.2229309518118734,10.104424031706397,-0.14377922299379312,-0.10186862002654173,-0.09520049542416432,0.39437839801166286,1.2118124094141998,10.089372030101998,-0.14547013073739612,-0.10355952777014477,-0.09689140316776736
4.89,0.42617560292391266,1.208167752289683,10.111424785971789,-0.14431517421739082,-0.10335923885662476,-0.09776766228584977,0.4203695443315449,1.206732310793969,10.106064681689562,-0.1362470193122536,-0.09529108395148754,-0.08969950738071254
4.9,0.42072646339263675,1.17165849118915,10.096699127239335,-0.13361616561585485,-0.0936179322095867,-0.08910455281994896,0.43486536842946916,1.1901408298273173,10.111265579026991,-0.13136189007816645,-0.0913636566718983,-0.08685027728226057
4.91,0.4298147216045453,1.1496714535683163,10.096513804456464,-0.13896328018484766,-0.09992576037695093,-0.09649213905901896,0.45366464992464994,1.177837659421502,10.120772875115927,-0.12767772290459714,-0.08864020309670043,-0.08520658177876846
4.92,0.44740325692501465,1.136170406251378,10.104831069149762,-0.1309668157297409,-0.09289299839445904,-0.09054060798634629,0.4349761959395555,1.1280325023036528,10.09279475357938,-0.12916633865039964,-0.09109252131511777,-0.08874013090700503
